timestamp,ax,ay,az
0.0,0.028,0.264,0.373
0.005,0.044,0.321,0.375
0.01,0.079,0.4,0.229
0.015,0.205,0.444,0.4
0.02,0.244,0.367,0.372
0.025,0.212,0.538,0.388
0.03,0.379,0.519,0.508
0.035,0.472,0.459,0.438
0.04,0.287,0.502,0.405
0.045,0.417,0.579,0.405
0.05,0.528,0.581,0.439
0.055,0.538,0.497,0.428
0.06,0.55,0.541,0.482
0.065,0.572,0.544,0.378
0.07,0.54,0.625,0.405
0.075,0.71,0.675,0.398
0.08,0.737,0.588,0.29
0.085,0.666,0.613,0.319
0.09,0.804,0.578,0.313
0.095,0.757,0.558,0.31
0.1,0.879,0.504,0.324
0.105,0.789,0.498,0.256
0.11,0.786,0.605,0.231
0.115,0.823,0.519,0.066
0.12,0.829,0.505,0.218
0.125,0.778,0.429,0.085
0.13,0.697,0.467,0.112
0.135,0.821,0.477,0.098
0.14,0.68,0.372,0.095
0.145,0.692,0.363,0.129
0.15,0.782,0.307,-0.01
0.155,0.59,0.185,-0.029
0.16,0.627,0.175,-0.11
0.165,0.62,0.16,-0.044
0.17,0.586,0.199,-0.099
0.175,0.552,0.131,-0.177
0.18,0.539,0.097,-0.144
0.185,0.502,0.105,-0.159
0.19,0.381,-0.129,-0.198
0.195,0.323,-0.031,-0.239
0.2,0.306,-0.077,-0.278
0.205,0.276,-0.055,-0.296
0.21,0.222,-0.13,-0.303
0.215,0.175,-0.213,-0.312
0.22,0.181,-0.18,-0.286
0.225,0.019,-0.383,-0.381
0.23,-0.069,-0.329,-0.353
0.235,-0.073,-0.347,-0.429
0.24,-0.082,-0.328,-0.414
0.245,-0.106,-0.429,-0.42
0.25,-0.255,-0.418,-0.466
0.255,-0.312,-0.479,-0.374
0.26,-0.294,-0.496,-0.458
0.265,-0.351,-0.509,-0.397
0.27,-0.458,-0.591,-0.379
0.275,-0.53,-0.558,-0.379
0.28,-0.548,-0.573,-0.481
0.285,-0.672,-0.533,-0.562
0.29,-0.554,-0.594,-0.357
0.295,-0.539,-0.557,-0.413
0.3,-0.687,-0.628,-0.385
0.305,-0.772,-0.573,-0.318
0.31,-0.738,-0.681,-0.321
0.315,-0.697,-0.585,-0.34
0.32,-0.791,-0.489,-0.258
0.325,-0.785,-0.598,-0.281
0.33,-0.801,-0.528,-0.274
0.335,-0.765,-0.481,-0.234
0.34,-0.812,-0.463,-0.201
0.345,-0.733,-0.523,-0.141
0.35,-0.691,-0.429,-0.171
0.355,-0.889,-0.593,-0.115
0.36,-0.764,-0.456,-0.077
0.365,-0.824,-0.385,-0.009
0.37,-0.71,-0.331,-0.115
0.375,-0.746,-0.347,0.06
0.38,-0.639,-0.324,-0.009
0.385,-0.67,-0.361,-0.029
0.39,-0.591,-0.286,-0.012
0.395,-0.627,-0.228,0.029
0.4,-0.578,-0.223,0.126
0.405,-0.546,0.032,0.067
0.41,-0.443,-0.079,0.136
0.415,-0.502,-0.018,0.199
0.42,-0.436,0.021,0.223
0.425,-0.32,0.08,0.209
0.43,-0.257,0.061,0.326
0.435,-0.206,0.121,0.236
0.44,-0.127,0.17,0.318
0.445,-0.193,0.225,0.32
0.45,-0.176,0.308,0.357
0.455,-0.034,0.234,0.389
0.46,-0.039,0.32,0.392
0.465,-0.002,0.249,0.408
0.47,0.114,0.347,0.401
0.475,0.234,0.459,0.395
0.48,0.305,0.347,0.372
0.485,0.323,0.475,0.326
0.49,0.343,0.49,0.305
0.495,0.331,0.533,0.396
0.5,0.441,0.52,0.42
0.505,0.514,0.555,0.456
0.51,0.539,0.635,0.341
0.515,0.528,0.517,0.359
0.52,0.584,0.618,0.374
0.525,0.622,0.67,0.364
0.53,0.671,0.673,0.344
0.535,0.632,0.583,0.319
0.54,0.728,0.647,0.323
0.545,0.719,0.535,0.387
0.55,0.772,0.52,0.264
0.555,0.778,0.6,0.314
0.56,0.835,0.539,0.261
0.565,0.756,0.586,0.27
0.57,0.827,0.57,0.264
0.575,0.801,0.55,0.281
0.58,0.834,0.489,0.185
0.585,0.787,0.435,0.047
0.59,0.846,0.443,0.143
0.595,0.768,0.393,0.065
0.6,0.803,0.384,0.103
0.605,0.684,0.354,-0.004
0.61,0.732,0.34,-0.009
0.615,0.647,0.258,0.054
0.62,0.614,0.205,-0.077
0.625,0.689,0.199,-0.11
0.63,0.562,0.19,-0.024
0.635,0.518,0.074,-0.15
0.64,0.495,0.097,-0.173
0.645,0.412,0.076,-0.165
0.65,0.39,-0.106,-0.246
0.655,0.327,-0.051,-0.276
0.66,0.315,-0.096,-0.284
0.665,0.222,-0.168,-0.268
0.67,0.191,-0.217,-0.198
0.675,0.136,-0.267,-0.208
0.68,0.05,-0.357,-0.252
0.685,0.045,-0.353,-0.285
0.69,-0.03,-0.267,-0.382
0.695,-0.08,-0.289,-0.337
0.7,-0.147,-0.468,-0.326
0.705,-0.161,-0.416,-0.256
0.71,-0.218,-0.458,-0.356
0.715,-0.329,-0.454,-0.373
0.72,-0.276,-0.468,-0.399
0.725,-0.363,-0.573,-0.461
0.73,-0.448,-0.517,-0.472
0.735,-0.541,-0.56,-0.385
0.74,-0.536,-0.514,-0.309
0.745,-0.588,-0.594,-0.44
0.75,-0.526,-0.501,-0.343
0.755,-0.636,-0.556,-0.324
0.76,-0.59,-0.621,-0.384
0.765,-0.703,-0.623,-0.324
0.77,-0.691,-0.668,-0.359
0.775,-0.721,-0.564,-0.283
0.78,-0.775,-0.612,-0.38
0.785,-0.78,-0.565,-0.217
0.79,-0.819,-0.562,-0.25
0.795,-0.829,-0.555,-0.256
0.8,-0.77,-0.513,-0.2
0.805,-0.747,-0.475,-0.154
0.81,-0.741,-0.426,-0.161
0.815,-0.865,-0.41,-0.144
0.82,-0.755,-0.428,-0.114
0.825,-0.687,-0.357,-0.092
0.83,-0.803,-0.379,-0.093
0.835,-0.773,-0.267,0.02
0.84,-0.663,-0.407,-0.047
0.845,-0.718,-0.241,-0.018
0.85,-0.644,-0.239,0.033
0.855,-0.649,-0.149,0.099
0.86,-0.619,-0.125,0.023
0.865,-0.606,-0.07,0.162
0.87,-0.466,-0.074,0.115
0.875,-0.468,-0.026,0.168
0.88,-0.372,-0.007,0.232
0.885,-0.376,0.052,0.286
0.89,-0.136,0.096,0.257
0.895,-0.278,0.14,0.285
0.9,-0.284,0.202,0.23
0.905,-0.076,0.227,0.317
0.91,-0.027,0.262,0.319
0.915,0.012,0.264,0.352
0.92,-0.036,0.349,0.365
0.925,0.004,0.351,0.375
0.93,0.136,0.378,0.412
0.935,0.245,0.401,0.369
0.94,0.272,0.488,0.436
0.945,0.254,0.533,0.344
0.95,0.302,0.427,0.344
0.955,0.359,0.485,0.474
0.96,0.407,0.514,0.427
0.965,0.558,0.56,0.448
0.97,0.555,0.544,0.375
0.975,0.557,0.552,0.43
0.98,0.518,0.594,0.364
0.985,0.613,0.739,0.357
0.99,0.669,0.732,0.369
0.995,0.641,0.587,0.32
1.0,0.72,0.588,0.351
1.005,0.668,0.522,0.336
1.01,0.772,0.558,0.311
1.015,0.718,0.612,0.295
1.02,0.778,0.597,0.264
1.025,0.793,0.487,0.273
1.03,0.943,0.539,0.252
1.035,0.846,0.522,0.234
1.04,0.864,0.437,0.237
1.045,0.848,0.525,0.096
1.05,0.89,0.392,0.082
1.055,0.741,0.403,0.114
1.06,0.769,0.375,0.05
1.065,0.616,0.326,-0.001
1.07,0.665,0.34,-0.017
1.075,0.679,0.22,-0.061
1.08,0.655,0.167,-0.07
1.085,0.594,0.28,-0.026
1.09,0.613,0.2,-0.12
1.095,0.512,0.077,-0.045
1.1,0.531,0.078,-0.171
1.105,0.426,0.015,-0.224
1.11,0.356,-0.035,-0.211
1.115,0.303,-0.007,-0.298
1.12,0.34,-0.12,-0.235
1.125,0.211,-0.095,-0.219
1.13,0.288,-0.13,-0.39
1.135,0.1,-0.254,-0.255
1.14,0.065,-0.18,-0.326
1.145,0.049,-0.274,-0.267
1.15,-0.045,-0.284,-0.403
1.155,-0.094,-0.347,-0.328
1.16,-0.075,-0.349,-0.335
1.165,-0.19,-0.353,-0.378
1.17,-0.261,-0.462,-0.347
1.175,-0.231,-0.411,-0.353
1.18,-0.378,-0.501,-0.442
1.185,-0.393,-0.506,-0.44
1.19,-0.461,-0.496,-0.357
1.195,-0.467,-0.51,-0.379
1.2,-0.451,-0.618,-0.471
1.205,-0.504,-0.53,-0.332
1.21,-0.591,-0.536,-0.351
1.215,-0.687,-0.626,-0.301
1.22,-0.585,-0.564,-0.375
1.225,-0.657,-0.585,-0.367
1.23,-0.758,-0.583,-0.318
1.235,-0.686,-0.543,-0.343
1.24,-0.766,-0.631,-0.224
1.245,-0.834,-0.559,-0.313
1.25,-0.79,-0.618,-0.25
1.255,-0.804,-0.53,-0.287
1.26,-0.85,-0.568,-0.22
1.265,-0.746,-0.49,-0.219
1.27,-0.746,-0.445,-0.098
1.275,-0.741,-0.454,-0.173
1.28,-0.81,-0.442,-0.19
1.285,-0.69,-0.418,-0.111
1.29,-0.632,-0.348,-0.054
1.295,-0.665,-0.311,-0.048
1.3,-0.703,-0.289,-0.071
1.305,-0.608,-0.365,0.069
1.31,-0.614,-0.286,0.17
1.315,-0.556,-0.171,0.066
1.32,-0.593,-0.178,0.083
1.325,-0.524,-0.079,0.125
1.33,-0.407,-0.001,0.175
1.335,-0.382,-0.072,0.158
1.34,-0.31,0.09,0.15
1.345,-0.283,0.065,0.24
1.35,-0.26,0.153,0.246
1.355,-0.297,0.124,0.353
1.36,-0.145,0.167,0.325
1.365,-0.152,0.232,0.282
1.37,-0.131,0.19,0.254
1.375,-0.002,0.277,0.382
1.38,-0.009,0.431,0.376
1.385,0.111,0.375,0.405
1.39,0.155,0.391,0.277
1.395,0.201,0.463,0.429
1.4,0.298,0.403,0.402
1.405,0.353,0.459,0.375
1.41,0.462,0.517,0.449
1.415,0.368,0.551,0.463
1.42,0.443,0.576,0.389
1.425,0.491,0.609,0.407
1.43,0.529,0.521,0.463
1.435,0.579,0.583,0.279
1.44,0.587,0.541,0.412
1.445,0.636,0.629,0.462
1.45,0.702,0.6,0.373
1.455,0.658,0.622,0.273
1.46,0.694,0.586,0.36
1.465,0.778,0.651,0.39
1.47,0.794,0.527,0.254
1.475,0.849,0.54,0.258
1.48,0.769,0.504,0.219
1.485,0.781,0.556,0.294
1.49,0.886,0.626,0.174
1.495,0.743,0.573,0.13
1.5,0.88,0.458,0.154
1.505,0.802,0.479,0.144
1.51,0.767,0.461,0.103
1.515,0.802,0.353,0.086
1.52,0.701,0.385,0.02
1.525,0.737,0.311,-0.004
1.53,0.676,0.259,-0.084
1.535,0.617,0.283,-0.062
1.54,0.501,0.162,-0.027
1.545,0.69,0.272,0.058
1.55,0.538,0.164,-0.136
1.555,0.438,0.08,-0.151
1.56,0.473,0.026,-0.19
1.565,0.384,0.053,-0.256
1.57,0.371,0.047,-0.244
1.575,0.322,-0.051,-0.198
1.58,0.295,-0.172,-0.259
1.585,0.195,-0.094,-0.296
1.59,0.216,-0.295,-0.415
1.595,0.103,-0.227,-0.305
1.6,-0.111,-0.184,-0.333
1.605,-0.029,-0.346,-0.365
1.61,-0.065,-0.281,-0.379
1.615,-0.11,-0.32,-0.295
1.62,-0.09,-0.361,-0.383
1.625,-0.212,-0.42,-0.335
1.63,-0.371,-0.485,-0.386
1.635,-0.234,-0.396,-0.423
1.64,-0.427,-0.573,-0.352
1.645,-0.35,-0.526,-0.24
1.65,-0.509,-0.56,-0.335
1.655,-0.423,-0.502,-0.407
1.66,-0.515,-0.566,-0.438
1.665,-0.602,-0.615,-0.409
1.67,-0.698,-0.623,-0.408
1.675,-0.632,-0.571,-0.384
1.68,-0.67,-0.512,-0.333
1.685,-0.582,-0.583,-0.386
1.69,-0.696,-0.501,-0.333
1.695,-0.755,-0.569,-0.241
1.7,-0.792,-0.524,-0.377
1.705,-0.843,-0.649,-0.234
1.71,-0.801,-0.505,-0.272
1.715,-0.71,-0.48,-0.284
1.72,-0.808,-0.479,-0.181
1.725,-0.837,-0.485,-0.145
1.73,-0.809,-0.485,-0.132
1.735,-0.876,-0.457,-0.183
1.74,-0.822,-0.445,-0.07
1.745,-0.814,-0.461,-0.083
1.75,-0.794,-0.392,-0.016
1.755,-0.67,-0.207,0.01
1.76,-0.702,-0.281,0.069
1.765,-0.634,-0.223,0.023
1.77,-0.643,-0.26,0.121
1.775,-0.438,-0.143,0.065
1.78,-0.548,-0.085,0.115
1.785,-0.597,-0.09,0.092
1.79,-0.362,-0.117,0.19
1.795,-0.358,0.001,0.209
1.8,-0.363,0.026,0.2
1.805,-0.25,0.042,0.378
1.81,-0.2,0.065,0.33
1.815,-0.295,0.205,0.295
1.82,-0.199,0.271,0.294
1.825,-0.123,0.233,0.257
1.83,-0.104,0.211,0.309
1.835,0.019,0.327,0.347
1.84,0.035,0.34,0.348
1.845,0.039,0.386,0.361
1.85,0.152,0.371,0.369
1.855,0.247,0.364,0.444
1.86,0.358,0.578,0.422
1.865,0.281,0.531,0.448
1.87,0.38,0.368,0.429
1.875,0.463,0.565,0.367
1.88,0.447,0.505,0.429
1.885,0.482,0.521,0.487
1.89,0.632,0.632,0.394
1.895,0.581,0.615,0.406
1.9,0.632,0.711,0.357
1.905,0.718,0.557,0.388
1.91,0.672,0.626,0.265
1.915,0.747,0.615,0.288
1.92,0.695,0.606,0.329
1.925,0.76,0.572,0.259
1.93,0.826,0.567,0.235
1.935,0.803,0.587,0.263
1.94,0.767,0.633,0.227
1.945,0.778,0.494,0.074
1.95,0.818,0.56,0.164
1.955,0.789,0.53,0.132
1.96,0.763,0.371,0.201
1.965,0.76,0.447,0.05
1.97,0.862,0.441,0.076
1.975,0.881,0.388,0.03
1.98,0.803,0.423,0.024
1.985,0.797,0.288,-0.042
1.99,0.637,0.236,0.016
1.995,0.726,0.282,0.03
2.0,0.551,0.332,-0.11
2.005,0.577,0.146,-0.086
2.01,0.584,0.112,-0.08
2.015,0.462,0.121,-0.171
2.02,0.356,-0.067,-0.193
2.025,0.418,0.025,-0.22
2.03,0.367,0.013,-0.214
2.035,0.3,-0.095,-0.207
2.04,0.186,-0.117,-0.202
2.045,0.135,-0.171,-0.3
2.05,0.158,-0.155,-0.292
2.055,0.058,-0.285,-0.258
2.06,0.078,-0.339,-0.345
2.065,0.021,-0.32,-0.262
2.07,-0.068,-0.36,-0.265
2.075,-0.153,-0.352,-0.404
2.08,-0.258,-0.34,-0.412
2.085,-0.196,-0.473,-0.377
2.09,-0.176,-0.433,-0.379
2.095,-0.312,-0.454,-0.409
2.1,-0.401,-0.441,-0.436
2.105,-0.367,-0.517,-0.404
2.11,-0.381,-0.705,-0.34
2.115,-0.441,-0.687,-0.36
2.12,-0.482,-0.534,-0.329
2.125,-0.672,-0.522,-0.387
2.13,-0.647,-0.586,-0.478
2.135,-0.684,-0.607,-0.354
2.14,-0.718,-0.612,-0.29
2.145,-0.622,-0.541,-0.325
2.15,-0.778,-0.542,-0.334
2.155,-0.805,-0.56,-0.319
2.16,-0.744,-0.618,-0.248
2.165,-0.758,-0.598,-0.229
2.17,-0.883,-0.475,-0.253
2.175,-0.778,-0.519,-0.186
2.18,-0.755,-0.577,-0.18
2.185,-0.915,-0.569,-0.227
2.19,-0.827,-0.396,-0.137
2.195,-0.864,-0.32,-0.217
2.2,-0.815,-0.389,-0.092
2.205,-0.785,-0.402,-0.062
2.21,-0.725,-0.326,-0.059
2.215,-0.786,-0.308,-0.011
2.22,-0.631,-0.287,-0.083
2.225,-0.609,-0.201,0.031
2.23,-0.558,-0.198,0.069
2.235,-0.559,-0.205,-0.011
2.24,-0.572,-0.147,0.25
2.245,-0.466,-0.121,0.131
2.25,-0.415,-0.024,0.209
2.255,-0.414,-0.005,0.181
2.26,-0.362,0.065,0.281
2.265,-0.277,0.106,0.332
2.27,-0.277,0.212,0.246
2.275,-0.268,0.161,0.42
2.28,-0.182,0.166,0.26
2.285,-0.104,0.251,0.37
2.29,0.024,0.289,0.276
2.295,0.071,0.209,0.365
2.3,0.104,0.322,0.448
2.305,0.123,0.338,0.334
2.31,0.035,0.372,0.358
2.315,0.257,0.467,0.393
2.32,0.321,0.424,0.38
2.325,0.281,0.423,0.338
2.33,0.399,0.548,0.32
2.335,0.469,0.487,0.494
2.34,0.437,0.462,0.39
2.345,0.537,0.653,0.381
2.35,0.535,0.659,0.332
2.355,0.535,0.584,0.469
2.36,0.65,0.587,0.378
2.365,0.601,0.63,0.428
2.37,0.745,0.61,0.312
2.375,0.71,0.596,0.383
2.38,0.671,0.668,0.34
2.385,0.756,0.593,0.301
2.39,0.763,0.476,0.266
2.395,0.751,0.565,0.253
2.4,0.774,0.532,0.151
2.405,0.812,0.615,0.205
2.41,0.676,0.528,0.223
2.415,0.849,0.52,0.222
2.42,0.818,0.485,0.17
2.425,0.794,0.556,0.153
2.43,0.724,0.509,0.076
2.435,0.725,0.4,0.029
2.44,0.848,0.354,0.101
2.445,0.575,0.274,-0.003
2.45,0.67,0.298,-0.045
2.455,0.696,0.329,-0.119
2.46,0.53,0.257,-0.105
2.465,0.662,0.161,-0.106
2.47,0.529,0.137,-0.104
2.475,0.525,0.06,-0.134
2.48,0.409,0.079,-0.128
2.485,0.423,-0.018,-0.26
2.49,0.314,-0.029,-0.256
2.495,0.275,-0.16,-0.309
2.5,0.26,-0.07,-0.419
2.505,0.201,-0.117,-0.256
2.51,0.1,-0.162,-0.29
2.515,0.162,-0.272,-0.333
2.52,0.057,-0.252,-0.344
2.525,0.011,-0.256,-0.332
2.53,-0.039,-0.467,-0.386
2.535,-0.161,-0.389,-0.458
2.54,-0.174,-0.431,-0.361
2.545,-0.31,-0.466,-0.381
2.55,-0.346,-0.513,-0.307
2.555,-0.342,-0.504,-0.358
2.56,-0.304,-0.523,-0.524
2.565,-0.436,-0.522,-0.417
2.57,-0.439,-0.494,-0.398
2.575,-0.575,-0.494,-0.368
2.58,-0.572,-0.571,-0.336
2.585,-0.623,-0.646,-0.352
2.59,-0.601,-0.569,-0.357
2.595,-0.68,-0.51,-0.37
2.6,-0.7,-0.504,-0.355
2.605,-0.726,-0.582,-0.397
2.61,-0.706,-0.596,-0.315
2.615,-0.733,-0.531,-0.317
2.62,-0.834,-0.598,-0.267
2.625,-0.734,-0.5,-0.24
2.63,-0.798,-0.538,-0.279
2.635,-0.9,-0.441,-0.119
2.64,-0.745,-0.566,-0.197
2.645,-0.744,-0.465,-0.291
2.65,-0.855,-0.473,-0.115
2.655,-0.865,-0.44,-0.137
2.66,-0.801,-0.431,-0.15
2.665,-0.757,-0.41,-0.081
2.67,-0.635,-0.345,-0.01
2.675,-0.671,-0.316,0.043
2.68,-0.625,-0.342,0.014
2.685,-0.625,-0.226,0.071
2.69,-0.636,-0.187,0.113
2.695,-0.559,-0.148,0.111
2.7,-0.45,-0.109,0.136
2.705,-0.543,-0.151,0.217
2.71,-0.483,-0.025,0.201
2.715,-0.405,0.012,0.188
2.72,-0.354,0.01,0.199
2.725,-0.224,-0.001,0.224
2.73,-0.196,0.169,0.332
2.735,-0.126,0.191,0.285
2.74,-0.106,0.221,0.313
2.745,-0.068,0.265,0.366
2.75,-0.063,0.293,0.381
2.755,0.051,0.347,0.311
2.76,0.18,0.382,0.417
2.765,0.157,0.383,0.274
2.77,0.248,0.367,0.382
2.775,0.236,0.386,0.477
2.78,0.337,0.511,0.367
2.785,0.355,0.627,0.445
2.79,0.375,0.519,0.324
2.795,0.412,0.529,0.397
2.8,0.513,0.574,0.357
2.805,0.561,0.685,0.476
2.81,0.571,0.54,0.4
2.815,0.612,0.646,0.264
2.82,0.59,0.607,0.394
2.825,0.522,0.505,0.34
2.83,0.719,0.627,0.432
2.835,0.689,0.644,0.32
2.84,0.734,0.496,0.318
2.845,0.849,0.584,0.326
2.85,0.794,0.47,0.193
2.855,0.807,0.566,0.257
2.86,0.79,0.519,0.258
2.865,0.744,0.606,0.163
2.87,0.833,0.443,0.125
2.875,0.742,0.518,0.17
2.88,0.82,0.451,0.088
2.885,0.863,0.541,0.175
2.89,0.747,0.352,0.042
2.895,0.827,0.418,0.074
2.9,0.739,0.289,-0.037
2.905,0.659,0.217,0.023
2.91,0.665,0.275,-0.134
2.915,0.726,0.285,-0.021
2.92,0.538,0.191,-0.089
2.925,0.596,0.221,-0.09
2.93,0.549,0.103,-0.087
2.935,0.544,0.076,-0.131
2.94,0.477,0.026,-0.142
2.945,0.349,0.021,-0.242
2.95,0.361,0.015,-0.312
2.955,0.373,-0.18,-0.231
2.96,0.222,-0.095,-0.302
2.965,0.18,-0.246,-0.239
2.97,0.147,-0.202,-0.236
2.975,0.118,-0.238,-0.287
2.98,0.093,-0.342,-0.366
2.985,-0.044,-0.263,-0.335
2.99,-0.107,-0.283,-0.384
2.995,-0.074,-0.445,-0.424
3.0,-0.191,-0.453,-0.352
3.005,-0.243,-0.389,-0.46
3.01,-0.334,-0.466,-0.384
3.015,-0.376,-0.524,-0.381
3.02,-0.433,-0.432,-0.402
3.025,-0.385,-0.493,-0.427
3.03,-0.386,-0.47,-0.394
3.035,-0.595,-0.531,-0.422
3.04,-0.609,-0.578,-0.341
3.045,-0.633,-0.705,-0.368
3.05,-0.677,-0.603,-0.283
3.055,-0.759,-0.54,-0.377
3.06,-0.629,-0.605,-0.284
3.065,-0.677,-0.639,-0.312
3.07,-0.792,-0.663,-0.323
3.075,-0.757,-0.598,-0.216
3.08,-0.774,-0.616,-0.257
3.085,-0.847,-0.632,-0.194
3.09,-0.732,-0.522,-0.259
3.095,-0.835,-0.507,-0.131
3.1,-0.766,-0.521,-0.039
3.105,-0.894,-0.441,-0.19
3.11,-0.816,-0.503,-0.154
3.115,-0.841,-0.362,-0.18
3.12,-0.864,-0.387,-0.139
3.125,-0.663,-0.366,-0.004
3.13,-0.725,-0.276,-0.041
3.135,-0.683,-0.25,0.018
3.14,-0.775,-0.306,0.089
3.145,-0.591,-0.19,0.109
3.15,-0.532,-0.07,0.111
3.155,-0.566,-0.151,0.119
3.16,-0.504,-0.082,0.085
3.165,-0.493,-0.014,0.118
3.17,-0.448,-0.033,0.182
3.175,-0.427,-0.011,0.259
3.18,-0.33,0.028,0.212
3.185,-0.209,0.124,0.194
3.19,-0.314,0.17,0.172
3.195,-0.141,0.144,0.376
3.2,-0.12,0.273,0.368
3.205,-0.041,0.248,0.294
3.21,-0.148,0.193,0.351
3.215,0.046,0.338,0.322
3.22,0.164,0.463,0.276
3.225,0.222,0.367,0.417
3.23,0.227,0.411,0.343
3.235,0.29,0.474,0.325
3.24,0.312,0.487,0.454
3.245,0.371,0.521,0.311
3.25,0.459,0.443,0.39
3.255,0.502,0.517,0.463
3.26,0.432,0.583,0.425
3.265,0.569,0.521,0.364
3.27,0.607,0.541,0.361
3.275,0.627,0.595,0.344
3.28,0.59,0.563,0.388
3.285,0.719,0.667,0.402
3.29,0.774,0.546,0.276
3.295,0.775,0.627,0.341
3.3,0.729,0.607,0.313
3.305,0.734,0.564,0.265
3.31,0.795,0.595,0.26
3.315,0.693,0.567,0.244
3.32,0.722,0.536,0.215
3.325,0.797,0.421,0.253
3.33,0.791,0.574,0.167
3.335,0.889,0.595,0.125
3.34,0.801,0.353,0.139
3.345,0.707,0.366,0.128
3.35,0.772,0.302,0.084
3.355,0.747,0.432,-0.014
3.36,0.675,0.367,0.007
3.365,0.61,0.375,-0.023
3.37,0.557,0.252,-0.081
3.375,0.569,0.243,-0.19
3.38,0.622,0.188,-0.163
3.385,0.511,0.211,-0.109
3.39,0.499,0.104,-0.131
3.395,0.535,0.088,-0.243
3.4,0.356,0.022,-0.111
3.405,0.328,-0.027,-0.276
3.41,0.306,-0.041,-0.278
3.415,0.215,-0.134,-0.237
3.42,0.235,-0.169,-0.317
3.425,0.131,-0.219,-0.337
3.43,0.107,-0.177,-0.322
3.435,0.106,-0.141,-0.295
3.44,0.041,-0.316,-0.443
3.445,-0.086,-0.312,-0.393
3.45,-0.186,-0.297,-0.426
3.455,-0.156,-0.499,-0.371
3.46,-0.209,-0.426,-0.421
3.465,-0.269,-0.429,-0.435
3.47,-0.338,-0.616,-0.463
3.475,-0.386,-0.422,-0.378
3.48,-0.376,-0.573,-0.445
3.485,-0.483,-0.565,-0.484
3.49,-0.482,-0.517,-0.324
3.495,-0.428,-0.532,-0.439
3.5,-0.584,-0.601,-0.389
3.505,-0.613,-0.584,-0.361
3.51,-0.65,-0.572,-0.413
3.515,-0.696,-0.606,-0.302
3.52,-0.727,-0.637,-0.412
3.525,-0.809,-0.559,-0.281
3.53,-0.824,-0.57,-0.362
3.535,-0.699,-0.639,-0.347
3.54,-0.887,-0.577,-0.299
3.545,-0.785,-0.507,-0.213
3.55,-0.701,-0.445,-0.236
3.555,-0.816,-0.462,-0.19
3.56,-0.85,-0.584,-0.176
3.565,-0.828,-0.493,-0.159
3.57,-0.815,-0.451,-0.059
3.575,-0.845,-0.353,-0.033
3.58,-0.793,-0.307,-0.082
3.585,-0.739,-0.389,-0.06
3.59,-0.635,-0.318,-0.031
3.595,-0.559,-0.243,-0.012
3.6,-0.612,-0.303,0.13
3.605,-0.68,-0.278,0.072
3.61,-0.623,-0.146,0.17
3.615,-0.551,-0.152,0.142
3.62,-0.506,-0.116,0.12
3.625,-0.388,-0.068,0.188
3.63,-0.355,0.025,0.229
3.635,-0.297,0.062,0.175
3.64,-0.326,0.034,0.263
3.645,-0.242,0.143,0.253
3.65,-0.213,0.267,0.213
3.655,-0.13,0.194,0.293
3.66,-0.086,0.196,0.349
3.665,-0.07,0.195,0.345
3.67,-0.087,0.347,0.316
3.675,-0.028,0.262,0.393
3.68,0.148,0.367,0.436
3.685,0.161,0.396,0.368
3.69,0.246,0.43,0.354
3.695,0.167,0.463,0.392
3.7,0.207,0.463,0.467
3.705,0.411,0.443,0.415
3.71,0.491,0.469,0.497
3.715,0.448,0.571,0.425
3.72,0.563,0.566,0.438
3.725,0.502,0.636,0.479
3.73,0.592,0.603,0.309
3.735,0.652,0.602,0.411
3.74,0.586,0.61,0.301
3.745,0.722,0.732,0.363
3.75,0.735,0.526,0.416
3.755,0.746,0.614,0.341
3.76,0.778,0.567,0.31
3.765,0.9,0.552,0.259
3.77,0.835,0.544,0.207
3.775,0.778,0.622,0.242
3.78,0.699,0.594,0.236
3.785,0.763,0.533,0.239
3.79,0.767,0.492,0.187
3.795,0.777,0.555,0.046
3.8,0.79,0.402,0.109
3.805,0.784,0.419,0.014
3.81,0.748,0.386,0.145
3.815,0.703,0.428,0.014
3.82,0.693,0.266,0.098
3.825,0.726,0.281,-0.075
3.83,0.648,0.186,0.02
3.835,0.623,0.104,-0.008
3.84,0.573,0.213,-0.056
3.845,0.528,0.101,-0.129
3.85,0.461,0.093,-0.192
3.855,0.403,0.037,-0.086
3.86,0.4,-0.047,-0.176
3.865,0.395,0.056,-0.268
3.87,0.419,-0.141,-0.289
3.875,0.312,-0.191,-0.284
3.88,0.24,-0.172,-0.282
3.885,0.156,-0.198,-0.213
3.89,0.031,-0.28,-0.267
3.895,0.073,-0.261,-0.402
3.9,0.087,-0.263,-0.246
3.905,-0.018,-0.291,-0.487
3.91,-0.109,-0.352,-0.38
3.915,-0.195,-0.39,-0.325
3.92,-0.138,-0.456,-0.423
3.925,-0.284,-0.548,-0.41
3.93,-0.37,-0.446,-0.425
3.935,-0.345,-0.577,-0.396
3.94,-0.493,-0.465,-0.274
3.945,-0.553,-0.473,-0.419
3.95,-0.507,-0.514,-0.431
3.955,-0.559,-0.603,-0.392
3.96,-0.623,-0.65,-0.386
3.965,-0.615,-0.611,-0.427
3.97,-0.598,-0.557,-0.375
3.975,-0.627,-0.61,-0.394
3.98,-0.66,-0.51,-0.397
3.985,-0.709,-0.575,-0.323
3.99,-0.79,-0.614,-0.273
3.995,-0.814,-0.628,-0.35
4.0,-0.743,-0.525,-0.346
4.005,-0.788,-0.683,-0.276
4.01,-0.845,-0.579,-0.205
4.015,-0.81,-0.518,-0.186
4.02,-0.79,-0.513,-0.21
4.025,-0.809,-0.459,-0.142
4.03,-0.702,-0.384,-0.103
4.035,-0.765,-0.408,-0.02
4.04,-0.775,-0.373,-0.162
4.045,-0.651,-0.394,-0.088
4.05,-0.7,-0.417,0.042
4.055,-0.649,-0.291,0.044
4.06,-0.725,-0.283,0.086
4.065,-0.632,-0.253,0.035
4.07,-0.566,-0.138,0.094
4.075,-0.526,-0.143,0.146
4.08,-0.444,-0.101,0.18
4.085,-0.365,0.015,0.199
4.09,-0.43,-0.065,0.228
4.095,-0.404,0.074,0.202
4.1,-0.265,0.024,0.268
4.105,-0.186,0.142,0.179
4.11,-0.179,0.164,0.257
4.115,-0.116,0.216,0.318
4.12,-0.199,0.267,0.375
4.125,0.007,0.271,0.31
4.13,0.002,0.274,0.354
4.135,0.067,0.321,0.382
4.14,0.152,0.361,0.357
4.145,0.203,0.427,0.437
4.15,0.315,0.492,0.356
4.155,0.271,0.417,0.352
4.16,0.251,0.453,0.393
4.165,0.325,0.495,0.446
4.17,0.482,0.565,0.443
4.175,0.519,0.62,0.483
4.18,0.511,0.542,0.418
4.185,0.485,0.541,0.345
4.19,0.574,0.564,0.37
4.195,0.587,0.618,0.371
4.2,0.636,0.593,0.337
4.205,0.767,0.639,0.349
4.21,0.715,0.537,0.341
4.215,0.786,0.669,0.263
4.22,0.812,0.63,0.339
4.225,0.751,0.522,0.283
4.23,0.811,0.56,0.216
4.235,0.874,0.521,0.234
4.24,0.799,0.487,0.282
4.245,0.761,0.554,0.24
4.25,0.832,0.531,0.183
4.255,0.713,0.457,0.104
4.26,0.84,0.379,0.142
4.265,0.753,0.416,0.061
4.27,0.724,0.381,0.08
4.275,0.704,0.344,0.04
4.28,0.684,0.219,0.034
4.285,0.607,0.28,0.003
4.29,0.692,0.197,-0.198
4.295,0.65,0.17,-0.167
4.3,0.632,0.191,-0.074
4.305,0.55,0.09,-0.106
4.31,0.479,0.092,-0.146
4.315,0.392,0.003,-0.16
4.32,0.429,-0.01,-0.262
4.325,0.366,-0.05,-0.195
4.33,0.333,-0.129,-0.165
4.335,0.205,-0.138,-0.288
4.34,0.171,-0.161,-0.309
4.345,0.148,-0.128,-0.299
4.35,0.086,-0.303,-0.385
4.355,-0.025,-0.286,-0.341
4.36,0.04,-0.331,-0.315
4.365,-0.048,-0.324,-0.345
4.37,-0.148,-0.454,-0.293
4.375,-0.176,-0.406,-0.438
4.38,-0.176,-0.475,-0.415
4.385,-0.261,-0.571,-0.357
4.39,-0.304,-0.664,-0.359
4.395,-0.441,-0.526,-0.326
4.4,-0.424,-0.48,-0.276
4.405,-0.504,-0.593,-0.384
4.41,-0.569,-0.563,-0.414
4.415,-0.66,-0.64,-0.404
4.42,-0.532,-0.58,-0.42
4.425,-0.596,-0.541,-0.32
4.43,-0.618,-0.582,-0.399
4.435,-0.681,-0.625,-0.404
4.44,-0.71,-0.613,-0.323
4.445,-0.786,-0.612,-0.303
4.45,-0.813,-0.557,-0.283
4.455,-0.768,-0.631,-0.265
4.46,-0.718,-0.615,-0.298
4.465,-0.761,-0.48,-0.284
4.47,-0.733,-0.469,-0.231
4.475,-0.76,-0.497,-0.1
4.48,-0.874,-0.573,-0.113
4.485,-0.683,-0.552,-0.136
4.49,-0.664,-0.425,-0.206
4.495,-0.761,-0.414,-0.006
4.5,-0.759,-0.345,-0.019
4.505,-0.614,-0.378,-0.016
4.51,-0.711,-0.388,0.047
4.515,-0.596,-0.263,0.048
4.52,-0.609,-0.196,0.075
4.525,-0.665,-0.141,0.037
4.53,-0.583,-0.183,0.105
4.535,-0.516,-0.261,0.107
4.54,-0.499,-0.055,0.193
4.545,-0.408,-0.067,0.251
4.55,-0.467,-0.014,0.16
4.555,-0.44,0.061,0.217
4.56,-0.202,0.057,0.21
4.565,-0.299,0.083,0.282
4.57,-0.236,0.182,0.342
4.575,-0.148,0.236,0.278
4.58,-0.175,0.246,0.395
4.585,0.011,0.311,0.298
4.59,-0.071,0.272,0.334
4.595,0.043,0.424,0.408
4.6,0.048,0.447,0.436
4.605,0.191,0.458,0.348
4.61,0.325,0.407,0.411
4.615,0.25,0.461,0.433
4.62,0.303,0.548,0.44
4.625,0.355,0.52,0.414
4.63,0.455,0.472,0.315
4.635,0.446,0.522,0.406
4.64,0.565,0.6,0.45
4.645,0.552,0.609,0.329
4.65,0.609,0.682,0.365
4.655,0.735,0.49,0.418
4.66,0.639,0.642,0.34
4.665,0.666,0.639,0.254
4.67,0.72,0.686,0.243
4.675,0.813,0.628,0.308
4.68,0.802,0.592,0.346
4.685,0.747,0.61,0.233
4.69,0.751,0.581,0.266
4.695,0.847,0.555,0.284
4.7,0.842,0.564,0.22
4.705,0.858,0.512,0.134
4.71,0.702,0.499,0.236
4.715,0.8,0.476,0.161
4.72,0.767,0.414,0.212
4.725,0.822,0.318,0.134
4.73,0.753,0.326,0.1
4.735,0.66,0.3,-0.089
4.74,0.676,0.246,-0.08
4.745,0.681,0.294,-0.102
4.75,0.573,0.158,-0.085
4.755,0.531,0.137,0.094
4.76,0.463,0.146,-0.141
4.765,0.454,0.09,-0.104
4.77,0.531,0.093,-0.184
4.775,0.392,0.044,-0.146
4.78,0.411,-0.084,-0.246
4.785,0.351,-0.027,-0.31
4.79,0.324,-0.075,-0.253
4.795,0.251,-0.167,-0.295
4.8,0.135,-0.166,-0.325
4.805,0.16,-0.243,-0.293
4.81,0.12,-0.289,-0.417
4.815,0.038,-0.267,-0.306
4.82,-0.005,-0.384,-0.336
4.825,-0.127,-0.456,-0.364
4.83,-0.123,-0.399,-0.384
4.835,-0.184,-0.421,-0.437
4.84,-0.27,-0.455,-0.343
4.845,-0.28,-0.587,-0.451
4.85,-0.377,-0.606,-0.457
4.855,-0.411,-0.495,-0.412
4.86,-0.37,-0.653,-0.485
4.865,-0.453,-0.541,-0.373
4.87,-0.541,-0.625,-0.38
4.875,-0.62,-0.57,-0.401
4.88,-0.594,-0.635,-0.286
4.885,-0.659,-0.54,-0.321
4.89,-0.709,-0.638,-0.311
4.895,-0.728,-0.564,-0.36
4.9,-0.731,-0.505,-0.35
4.905,-0.714,-0.641,-0.36
4.91,-0.758,-0.549,-0.365
4.915,-0.753,-0.591,-0.287
4.92,-0.841,-0.558,-0.225
4.925,-0.774,-0.496,-0.257
4.93,-0.791,-0.571,-0.156
4.935,-0.78,-0.563,-0.178
4.94,-0.822,-0.405,-0.192
4.945,-0.707,-0.541,0.046
4.95,-0.698,-0.434,-0.034
4.955,-0.795,-0.432,-0.048
4.96,-0.807,-0.396,-0.016
4.965,-0.727,-0.357,0.042
4.97,-0.827,-0.339,-0.046
4.975,-0.661,-0.321,0.019
4.98,-0.673,-0.253,0.022
4.985,-0.573,-0.217,0.063
4.99,-0.565,-0.094,0.11
4.995,-0.575,-0.074,0.138
5.0,-0.54,-0.011,0.049
5.005,-0.486,0.008,0.017
5.01,-0.354,0.031,0.317
5.015,-0.389,0.152,0.164
5.02,-0.336,0.202,0.243
5.025,-0.199,0.16,0.25
5.03,-0.286,0.215,0.287
5.035,-0.024,0.216,0.392
5.04,-0.09,0.326,0.391
5.045,-0.012,0.357,0.289
5.05,-0.071,0.319,0.411
5.055,0.129,0.277,0.354
5.06,0.161,0.406,0.337
5.065,0.228,0.426,0.363
5.07,0.287,0.385,0.395
5.075,0.325,0.461,0.462
5.08,0.38,0.519,0.43
5.085,0.422,0.471,0.385
5.09,0.389,0.615,0.369
5.095,0.433,0.606,0.385
5.1,0.564,0.521,0.367
5.105,0.589,0.672,0.37
5.11,0.573,0.612,0.321
5.115,0.657,0.547,0.409
5.12,0.718,0.679,0.408
5.125,0.669,0.633,0.386
5.13,0.682,0.551,0.289
5.135,0.721,0.59,0.417
5.14,0.769,0.605,0.348
5.145,0.872,0.551,0.315
5.15,0.784,0.568,0.272
5.155,0.815,0.482,0.141
5.16,0.777,0.504,0.162
5.165,0.771,0.462,0.255
5.17,0.781,0.493,0.15
5.175,0.784,0.469,0.165
5.18,0.742,0.34,0.202
5.185,0.82,0.439,0.073
5.19,0.807,0.386,0.114
5.195,0.609,0.322,0.103
5.2,0.699,0.326,0.041
5.205,0.688,0.343,0.012
5.21,0.634,0.286,-0.055
5.215,0.523,0.174,-0.092
5.22,0.529,0.133,-0.25
5.225,0.558,0.078,-0.076
5.23,0.469,0.043,-0.16
5.235,0.347,0.056,-0.125
5.24,0.417,-0.091,-0.188
5.245,0.311,-0.012,-0.199
5.25,0.274,-0.17,-0.212
5.255,0.192,-0.132,-0.211
5.26,0.145,-0.185,-0.294
5.265,0.062,-0.17,-0.283
5.27,0.051,-0.186,-0.219
5.275,-0.024,-0.264,-0.36
5.28,-0.038,-0.373,-0.296
5.285,-0.1,-0.382,-0.43
5.29,-0.153,-0.49,-0.284
5.295,-0.15,-0.471,-0.344
5.3,-0.306,-0.44,-0.36
5.305,-0.251,-0.488,-0.368
5.31,-0.239,-0.485,-0.439
5.315,-0.458,-0.521,-0.431
5.32,-0.451,-0.581,-0.277
5.325,-0.494,-0.509,-0.335
5.33,-0.602,-0.516,-0.379
5.335,-0.482,-0.556,-0.404
5.34,-0.671,-0.573,-0.376
5.345,-0.638,-0.637,-0.338
5.35,-0.676,-0.617,-0.385
5.355,-0.746,-0.615,-0.325
5.36,-0.683,-0.547,-0.285
5.365,-0.72,-0.628,-0.353
5.37,-0.857,-0.609,-0.33
5.375,-0.793,-0.616,-0.271
5.38,-0.722,-0.533,-0.104
5.385,-0.836,-0.573,-0.28
5.39,-0.809,-0.566,-0.225
5.395,-0.785,-0.533,-0.138
5.4,-0.814,-0.432,-0.155
5.405,-0.808,-0.433,-0.109
5.41,-0.775,-0.42,-0.095
5.415,-0.702,-0.356,-0.051
5.42,-0.658,-0.288,0.044
5.425,-0.729,-0.297,-0.03
5.43,-0.737,-0.316,0.034
5.435,-0.604,-0.24,-0.0
5.44,-0.604,-0.213,0.05
5.445,-0.654,-0.228,0.05
5.45,-0.496,-0.233,0.113
5.455,-0.571,-0.09,0.121
5.46,-0.482,-0.08,0.171
5.465,-0.327,0.009,0.187
5.47,-0.326,-0.021,0.305
5.475,-0.31,0.052,0.303
5.48,-0.256,0.079,0.302
5.485,-0.179,0.127,0.327
5.49,-0.151,0.222,0.249
5.495,-0.083,0.209,0.372
5.5,-0.094,0.206,0.291
5.505,-0.022,0.357,0.358
5.51,0.064,0.289,0.316
5.515,0.076,0.303,0.426
5.52,0.163,0.311,0.375
5.525,0.22,0.423,0.363
5.53,0.232,0.528,0.362
5.535,0.361,0.488,0.502
5.54,0.385,0.515,0.462
5.545,0.477,0.558,0.433
5.55,0.483,0.563,0.358
5.555,0.514,0.554,0.243
5.56,0.518,0.573,0.446
5.565,0.656,0.606,0.335
5.57,0.646,0.549,0.341
5.575,0.667,0.562,0.377
5.58,0.71,0.557,0.351
5.585,0.744,0.474,0.36
5.59,0.745,0.609,0.35
5.595,0.772,0.519,0.307
5.6,0.733,0.516,0.231
5.605,0.781,0.631,0.292
5.61,0.818,0.521,0.189
5.615,0.792,0.67,0.172
5.62,0.782,0.621,0.176
5.625,0.74,0.474,0.179
5.63,0.789,0.495,0.231
5.635,0.764,0.471,0.032
5.64,0.754,0.372,0.059
5.645,0.642,0.426,0.072
5.65,0.713,0.414,0.091
5.655,0.688,0.349,-0.03
5.66,0.7,0.259,-0.005
5.665,0.591,0.327,0.065
5.67,0.634,0.142,-0.015
5.675,0.571,0.273,-0.056
5.68,0.514,0.149,-0.128
5.685,0.484,0.182,-0.145
5.69,0.354,0.032,-0.225
5.695,0.357,0.061,-0.144
5.7,0.346,-0.017,-0.296
5.705,0.361,-0.017,-0.202
5.71,0.327,-0.161,-0.272
5.715,0.15,-0.123,-0.31
5.72,0.156,-0.235,-0.294
5.725,0.071,-0.226,-0.354
5.73,0.084,-0.212,-0.359
5.735,0.05,-0.287,-0.359
5.74,0.033,-0.256,-0.36
5.745,-0.115,-0.461,-0.347
5.75,-0.156,-0.34,-0.411
5.755,-0.297,-0.441,-0.382
5.76,-0.296,-0.508,-0.306
5.765,-0.318,-0.441,-0.407
5.77,-0.414,-0.494,-0.369
5.775,-0.494,-0.473,-0.371
5.78,-0.471,-0.532,-0.482
5.785,-0.472,-0.527,-0.331
5.79,-0.625,-0.55,-0.435
5.795,-0.671,-0.53,-0.485
5.8,-0.607,-0.628,-0.448
5.805,-0.606,-0.558,-0.41
5.81,-0.652,-0.575,-0.351
5.815,-0.624,-0.489,-0.359
5.82,-0.652,-0.624,-0.299
5.825,-0.808,-0.613,-0.309
5.83,-0.723,-0.644,-0.239
5.835,-0.841,-0.516,-0.256
5.84,-0.832,-0.53,-0.218
5.845,-0.834,-0.545,-0.184
5.85,-0.805,-0.532,-0.178
5.855,-0.857,-0.485,-0.085
5.86,-0.793,-0.447,-0.171
5.865,-0.813,-0.41,-0.076
5.87,-0.818,-0.404,-0.053
5.875,-0.84,-0.486,-0.069
5.88,-0.69,-0.34,-0.06
5.885,-0.702,-0.384,-0.069
5.89,-0.71,-0.293,-0.008
5.895,-0.726,-0.312,0.165
5.9,-0.742,-0.224,0.009
5.905,-0.562,-0.12,0.177
5.91,-0.51,-0.175,0.111
5.915,-0.404,-0.016,0.226
5.92,-0.414,-0.056,0.198
5.925,-0.422,-0.003,0.233
5.93,-0.428,0.054,0.278
5.935,-0.355,-0.06,0.274
5.94,-0.143,0.035,0.379
5.945,-0.289,0.161,0.304
5.95,-0.157,0.285,0.391
5.955,-0.127,0.278,0.309
5.96,-0.041,0.251,0.364
5.965,0.008,0.279,0.376
5.97,0.016,0.36,0.256
5.975,0.164,0.275,0.431
5.98,0.173,0.508,0.406
5.985,0.31,0.53,0.481
5.99,0.354,0.54,0.358
5.995,0.324,0.589,0.381
6.0,0.422,0.557,0.476
6.005,0.399,0.607,0.454
6.01,0.491,0.594,0.423
6.015,0.429,0.61,0.36
6.02,0.576,0.624,0.453
6.025,0.713,0.656,0.401
6.03,0.605,0.483,0.378
6.035,0.774,0.596,0.347
6.04,0.65,0.551,0.415
6.045,0.735,0.616,0.337
6.05,0.745,0.554,0.265
6.055,0.776,0.564,0.3
6.06,0.78,0.623,0.273
6.065,0.872,0.584,0.272
6.07,0.822,0.489,0.283
6.075,0.815,0.473,0.182
6.08,0.735,0.589,0.214
6.085,0.791,0.442,0.066
6.09,0.75,0.486,0.126
6.095,0.78,0.415,0.17
6.1,0.694,0.396,0.092
6.105,0.787,0.391,0.024
6.11,0.739,0.276,-0.004
6.115,0.676,0.345,0.096
6.12,0.672,0.274,-0.064
6.125,0.555,0.28,-0.005
6.13,0.576,0.224,-0.11
6.135,0.58,0.235,-0.094
6.14,0.58,0.182,-0.19
6.145,0.498,0.037,-0.173
6.15,0.373,0.045,-0.152
6.155,0.441,-0.021,-0.212
6.16,0.316,-0.037,-0.122
6.165,0.345,-0.069,-0.282
6.17,0.233,-0.122,-0.338
6.175,0.181,-0.148,-0.352
6.18,0.157,-0.235,-0.375
6.185,0.064,-0.194,-0.285
6.19,0.002,-0.366,-0.386
6.195,0.006,-0.296,-0.385
6.2,-0.064,-0.378,-0.303
6.205,-0.05,-0.435,-0.426
6.21,-0.078,-0.335,-0.399
6.215,-0.228,-0.445,-0.397
6.22,-0.261,-0.41,-0.32
6.225,-0.417,-0.454,-0.413
6.23,-0.46,-0.503,-0.453
6.235,-0.475,-0.57,-0.285
6.24,-0.588,-0.52,-0.348
6.245,-0.593,-0.564,-0.396
6.25,-0.485,-0.592,-0.425
6.255,-0.614,-0.511,-0.322
6.26,-0.631,-0.631,-0.444
6.265,-0.756,-0.595,-0.39
6.27,-0.843,-0.636,-0.382
6.275,-0.717,-0.598,-0.352
6.28,-0.79,-0.672,-0.273
6.285,-0.77,-0.582,-0.314
6.29,-0.719,-0.625,-0.29
6.295,-0.782,-0.536,-0.301
6.3,-0.741,-0.568,-0.209
6.305,-0.806,-0.507,-0.303
6.31,-0.801,-0.514,-0.187
6.315,-0.769,-0.509,-0.076
6.32,-0.787,-0.472,-0.089
6.325,-0.738,-0.485,-0.149
6.33,-0.683,-0.363,-0.08
6.335,-0.695,-0.354,-0.015
6.34,-0.721,-0.331,-0.059
6.345,-0.628,-0.337,-0.011
6.35,-0.678,-0.258,0.041
6.355,-0.745,-0.225,0.084
6.36,-0.52,-0.197,0.102
6.365,-0.595,-0.194,0.108
6.37,-0.43,-0.029,0.072
6.375,-0.508,-0.037,0.081
6.38,-0.46,0.001,0.171
6.385,-0.415,-0.011,0.205
6.39,-0.321,0.051,0.265
6.395,-0.266,0.043,0.21
6.4,-0.317,0.174,0.245
6.405,-0.159,0.115,0.347
6.41,-0.16,0.219,0.293
6.415,-0.062,0.26,0.438
6.42,-0.054,0.165,0.389
6.425,0.071,0.334,0.378
6.43,0.063,0.327,0.329
6.435,0.17,0.416,0.452
6.44,0.147,0.468,0.38
6.445,0.193,0.414,0.352
6.45,0.247,0.515,0.391
6.455,0.398,0.428,0.45
6.46,0.45,0.422,0.366
6.465,0.436,0.485,0.387
6.47,0.433,0.569,0.354
6.475,0.575,0.554,0.41
6.48,0.575,0.622,0.335
6.485,0.593,0.591,0.312
6.49,0.658,0.584,0.377
6.495,0.575,0.571,0.279
6.5,0.587,0.629,0.245
6.505,0.719,0.601,0.319
6.51,0.731,0.553,0.281
6.515,0.794,0.678,0.263
6.52,0.694,0.562,0.27
6.525,0.836,0.57,0.215
6.53,0.769,0.547,0.206
6.535,0.798,0.455,0.245
6.54,0.847,0.545,0.138
6.545,0.844,0.438,0.096
6.55,0.742,0.488,0.152
6.555,0.797,0.432,0.149
6.56,0.856,0.348,0.111
6.565,0.721,0.336,0.066
6.57,0.743,0.346,-0.082
6.575,0.637,0.277,-0.013
6.58,0.629,0.28,-0.002
6.585,0.583,0.222,-0.085
6.59,0.658,0.069,-0.06
6.595,0.497,0.146,-0.012
6.6,0.593,0.195,-0.041
6.605,0.504,-0.07,-0.164
6.61,0.419,0.01,-0.058
6.615,0.353,0.03,-0.238
6.62,0.309,-0.042,-0.148
6.625,0.233,-0.114,-0.281
6.63,0.265,-0.138,-0.372
6.635,0.271,-0.218,-0.305
6.64,0.156,-0.258,-0.391
6.645,0.064,-0.214,-0.341
6.65,-0.051,-0.279,-0.401
6.655,-0.048,-0.343,-0.317
6.66,-0.146,-0.375,-0.481
6.665,-0.07,-0.489,-0.363
6.67,-0.171,-0.409,-0.413
6.675,-0.229,-0.411,-0.337
6.68,-0.326,-0.486,-0.34
6.685,-0.4,-0.527,-0.427
6.69,-0.409,-0.499,-0.332
6.695,-0.464,-0.625,-0.284
6.7,-0.406,-0.617,-0.43
6.705,-0.426,-0.574,-0.435
6.71,-0.547,-0.589,-0.403
6.715,-0.525,-0.594,-0.304
6.72,-0.621,-0.525,-0.445
6.725,-0.668,-0.543,-0.332
6.73,-0.826,-0.514,-0.394
6.735,-0.653,-0.626,-0.37
6.74,-0.78,-0.585,-0.346
6.745,-0.784,-0.6,-0.291
6.75,-0.683,-0.535,-0.293
6.755,-0.721,-0.531,-0.196
6.76,-0.763,-0.562,-0.202
6.765,-0.803,-0.529,-0.276
6.77,-0.834,-0.503,-0.177
6.775,-0.815,-0.531,-0.129
6.78,-0.738,-0.454,-0.122
6.785,-0.825,-0.441,-0.077
6.79,-0.863,-0.466,-0.041
6.795,-0.747,-0.371,-0.022
6.8,-0.751,-0.421,0.028
6.805,-0.603,-0.345,-0.007
6.81,-0.711,-0.239,0.138
6.815,-0.654,-0.29,0.019
6.82,-0.571,-0.199,0.028
6.825,-0.537,-0.147,0.054
6.83,-0.538,-0.181,0.149
6.835,-0.468,-0.114,0.175
6.84,-0.341,0.001,0.145
6.845,-0.345,0.008,0.236
6.85,-0.308,0.074,0.153
6.855,-0.303,0.097,0.202
6.86,-0.118,0.169,0.267
6.865,-0.119,0.183,0.348
6.87,-0.148,0.232,0.287
6.875,-0.029,0.221,0.234
6.88,-0.095,0.361,0.391
6.885,0.016,0.296,0.355
6.89,0.102,0.391,0.409
6.895,0.286,0.346,0.381
6.9,0.208,0.43,0.33
6.905,0.207,0.409,0.377
6.91,0.274,0.511,0.291
6.915,0.314,0.407,0.355
6.92,0.414,0.555,0.432
6.925,0.559,0.537,0.363
6.93,0.504,0.516,0.395
6.935,0.43,0.519,0.416
6.94,0.595,0.58,0.364
6.945,0.579,0.556,0.378
6.95,0.615,0.688,0.438
6.955,0.699,0.585,0.335
6.96,0.695,0.581,0.355
6.965,0.749,0.615,0.329
6.97,0.819,0.536,0.311
6.975,0.669,0.513,0.263
6.98,0.738,0.553,0.376
6.985,0.751,0.583,0.232
6.99,0.809,0.455,0.19
6.995,0.858,0.51,0.196
7.0,0.793,0.492,0.261
7.005,0.847,0.467,0.083
7.01,0.805,0.433,0.113
7.015,0.724,0.512,0.136
7.02,0.751,0.444,0.092
7.025,0.768,0.325,0.129
7.03,0.768,0.323,-0.011
7.035,0.602,0.35,-0.076
7.04,0.737,0.401,-0.034
7.045,0.646,0.142,-0.157
7.05,0.537,0.23,-0.143
7.055,0.542,0.143,-0.164
7.06,0.515,0.063,-0.12
7.065,0.492,0.138,-0.095
7.07,0.43,-0.034,-0.168
7.075,0.404,-0.055,-0.215
7.08,0.186,-0.102,-0.267
7.085,0.233,-0.04,-0.296
7.09,0.306,-0.197,-0.285
7.095,0.21,-0.196,-0.268
7.1,0.132,-0.282,-0.431
7.105,0.011,-0.173,-0.259
7.11,0.006,-0.3,-0.34
7.115,-0.035,-0.322,-0.372
7.12,-0.09,-0.368,-0.354
7.125,-0.084,-0.449,-0.294
7.13,-0.111,-0.482,-0.359
7.135,-0.272,-0.464,-0.372
7.14,-0.312,-0.399,-0.421
7.145,-0.423,-0.595,-0.317
7.15,-0.399,-0.512,-0.393
7.155,-0.408,-0.485,-0.35
7.16,-0.48,-0.543,-0.457
7.165,-0.489,-0.507,-0.384
7.17,-0.568,-0.616,-0.346
7.175,-0.571,-0.626,-0.325
7.18,-0.723,-0.591,-0.293
7.185,-0.577,-0.57,-0.354
7.19,-0.779,-0.634,-0.313
7.195,-0.699,-0.677,-0.306
7.2,-0.659,-0.648,-0.346
7.205,-0.754,-0.461,-0.357
7.21,-0.71,-0.576,-0.352
7.215,-0.774,-0.568,-0.147
7.22,-0.766,-0.559,-0.221
7.225,-0.808,-0.47,-0.286
7.23,-0.719,-0.47,-0.139
7.235,-0.837,-0.539,-0.197
7.24,-0.682,-0.389,-0.218
7.245,-0.768,-0.41,-0.017
7.25,-0.659,-0.357,-0.084
7.255,-0.756,-0.361,0.001
7.26,-0.702,-0.359,0.067
7.265,-0.652,-0.264,0.019
7.27,-0.739,-0.281,0.021
7.275,-0.691,-0.207,0.095
7.28,-0.511,-0.163,0.153
7.285,-0.652,-0.211,0.076
7.29,-0.508,-0.08,0.118
7.295,-0.423,-0.072,0.197
7.3,-0.335,0.041,0.1
7.305,-0.336,0.06,0.267
7.31,-0.356,0.175,0.212
7.315,-0.203,0.122,0.298
7.32,-0.248,0.053,0.274
7.325,-0.111,0.171,0.255
7.33,-0.23,0.258,0.326
7.335,-0.083,0.414,0.361
7.34,0.018,0.328,0.384
7.345,0.107,0.368,0.316
7.35,0.08,0.333,0.383
7.355,0.191,0.458,0.379
7.36,0.311,0.418,0.354
7.365,0.281,0.359,0.359
7.37,0.273,0.579,0.325
7.375,0.319,0.532,0.373
7.38,0.37,0.521,0.381
7.385,0.419,0.421,0.375
7.39,0.511,0.612,0.376
7.395,0.505,0.643,0.377
7.4,0.638,0.639,0.446
7.405,0.6,0.63,0.442
7.41,0.61,0.619,0.297
7.415,0.677,0.622,0.341
7.42,0.677,0.559,0.377
7.425,0.772,0.564,0.33
7.43,0.74,0.564,0.293
7.435,0.819,0.654,0.251
7.44,0.809,0.628,0.298
7.445,0.812,0.585,0.168
7.45,0.83,0.534,0.29
7.455,0.822,0.526,0.179
7.46,0.798,0.558,0.223
7.465,0.71,0.378,0.151
7.47,0.706,0.534,0.066
7.475,0.737,0.392,0.224
7.48,0.772,0.471,0.13
7.485,0.822,0.387,0.024
7.49,0.735,0.351,-0.054
7.495,0.687,0.284,0.033
7.5,0.612,0.217,-0.077
7.505,0.556,0.136,-0.105
7.51,0.56,0.181,-0.095
7.515,0.515,0.145,-0.118
7.52,0.496,0.08,-0.142
7.525,0.398,0.089,-0.153
7.53,0.404,0.026,-0.149
7.535,0.343,0.053,-0.191
7.54,0.337,-0.028,-0.193
7.545,0.253,-0.154,-0.212
7.55,0.241,-0.191,-0.243
7.555,0.105,-0.177,-0.272
7.56,0.07,-0.256,-0.341
7.565,0.048,-0.363,-0.304
7.57,-0.073,-0.354,-0.312
7.575,-0.084,-0.329,-0.302
7.58,-0.085,-0.383,-0.417
7.585,-0.251,-0.454,-0.361
7.59,-0.259,-0.413,-0.312
7.595,-0.416,-0.395,-0.492
7.6,-0.333,-0.544,-0.46
7.605,-0.354,-0.542,-0.389
7.61,-0.426,-0.514,-0.399
7.615,-0.439,-0.579,-0.426
7.62,-0.525,-0.5,-0.311
7.625,-0.614,-0.559,-0.369
7.63,-0.599,-0.605,-0.391
7.635,-0.621,-0.61,-0.349
7.64,-0.699,-0.633,-0.345
7.645,-0.696,-0.573,-0.312
7.65,-0.731,-0.613,-0.313
7.655,-0.756,-0.558,-0.347
7.66,-0.722,-0.56,-0.251
7.665,-0.689,-0.553,-0.333
7.67,-0.742,-0.541,-0.271
7.675,-0.793,-0.459,-0.266
7.68,-0.826,-0.526,-0.206
7.685,-0.721,-0.496,-0.208
7.69,-0.836,-0.551,-0.172
7.695,-0.774,-0.545,-0.176
7.7,-0.794,-0.357,-0.081
7.705,-0.721,-0.421,-0.047
7.71,-0.763,-0.322,-0.113
7.715,-0.71,-0.35,0.001
7.72,-0.715,-0.369,0.004
7.725,-0.613,-0.194,0.029
7.73,-0.579,-0.231,0.051
7.735,-0.59,-0.189,0.042
7.74,-0.6,-0.181,0.099
7.745,-0.539,-0.063,0.097
7.75,-0.413,0.005,0.11
7.755,-0.489,-0.113,0.22
7.76,-0.437,0.01,0.238
7.765,-0.336,-0.005,0.245
7.77,-0.316,0.071,0.191
7.775,-0.288,0.073,0.218
7.78,-0.225,0.216,0.32
7.785,-0.109,0.14,0.287
7.79,-0.114,0.19,0.313
7.795,-0.052,0.206,0.364
7.8,0.034,0.34,0.347
7.805,0.135,0.418,0.353
7.81,0.107,0.345,0.454
7.815,0.176,0.528,0.401
7.82,0.296,0.435,0.367
7.825,0.33,0.469,0.423
7.83,0.41,0.423,0.384
7.835,0.43,0.604,0.388
7.84,0.409,0.568,0.304
7.845,0.52,0.625,0.407
7.85,0.479,0.513,0.458
7.855,0.515,0.586,0.422
7.86,0.609,0.58,0.4
7.865,0.683,0.629,0.313
7.87,0.706,0.668,0.366
7.875,0.685,0.511,0.324
7.88,0.83,0.541,0.301
7.885,0.821,0.63,0.444
7.89,0.756,0.614,0.244
7.895,0.807,0.557,0.259
7.9,0.77,0.61,0.252
7.905,0.823,0.576,0.216
7.91,0.777,0.502,0.205
7.915,0.755,0.548,0.134
7.92,0.754,0.562,0.198
7.925,0.77,0.427,0.123
7.93,0.77,0.413,0.119
7.935,0.815,0.313,0.069
7.94,0.685,0.454,0.075
7.945,0.781,0.364,0.014
7.95,0.691,0.326,-0.005
7.955,0.625,0.227,-0.123
7.96,0.653,0.22,-0.039
7.965,0.585,0.242,-0.058
7.97,0.646,0.175,-0.059
7.975,0.518,0.09,-0.16
7.98,0.469,0.1,-0.138
7.985,0.485,0.142,-0.193
7.99,0.326,0.057,-0.26
7.995,0.294,0.015,-0.09
8.0,0.29,-0.047,-0.175
8.005,0.313,-0.124,-0.368
8.01,0.241,-0.253,-0.244
8.015,0.162,-0.241,-0.237
8.02,0.161,-0.254,-0.395
8.025,-0.026,-0.264,-0.228
8.03,-0.01,-0.299,-0.327
8.035,-0.127,-0.298,-0.378
8.04,-0.127,-0.445,-0.429
8.045,-0.193,-0.399,-0.421
8.05,-0.22,-0.568,-0.422
8.055,-0.269,-0.536,-0.446
8.06,-0.301,-0.533,-0.429
8.065,-0.442,-0.567,-0.419
8.07,-0.448,-0.426,-0.367
8.075,-0.476,-0.639,-0.386
8.08,-0.579,-0.597,-0.351
8.085,-0.656,-0.619,-0.418
8.09,-0.569,-0.538,-0.395
8.095,-0.648,-0.536,-0.398
8.1,-0.646,-0.658,-0.35
8.105,-0.665,-0.62,-0.413
8.11,-0.684,-0.588,-0.344
8.115,-0.804,-0.616,-0.319
8.12,-0.805,-0.626,-0.307
8.125,-0.798,-0.602,-0.212
8.13,-0.806,-0.557,-0.292
8.135,-0.837,-0.57,-0.209
8.14,-0.75,-0.536,-0.173
8.145,-0.718,-0.507,-0.247
8.15,-0.732,-0.484,-0.177
8.155,-0.758,-0.44,-0.167
8.16,-0.706,-0.494,-0.192
8.165,-0.857,-0.385,-0.061
8.17,-0.8,-0.333,0.019
8.175,-0.846,-0.352,-0.093
8.18,-0.682,-0.431,0.047
8.185,-0.617,-0.172,0.073
8.19,-0.643,-0.272,0.037
8.195,-0.629,-0.27,0.027
8.2,-0.549,-0.133,0.173
8.205,-0.517,-0.129,0.189
8.21,-0.482,-0.008,0.235
8.215,-0.42,-0.126,0.168
8.22,-0.453,0.022,0.234
8.225,-0.294,0.031,0.288
8.23,-0.256,0.095,0.211
8.235,-0.238,0.205,0.334
8.24,-0.167,0.156,0.381
8.245,-0.098,0.201,0.313
8.25,-0.091,0.283,0.357
8.255,-0.056,0.269,0.321
8.26,0.039,0.25,0.33
8.265,0.077,0.369,0.278
8.27,0.167,0.467,0.365
8.275,0.154,0.454,0.366
8.28,0.231,0.429,0.378
8.285,0.398,0.432,0.43
8.29,0.27,0.522,0.423
8.295,0.351,0.491,0.427
8.3,0.358,0.571,0.443
8.305,0.489,0.577,0.376
8.31,0.561,0.595,0.356
8.315,0.598,0.634,0.403
8.32,0.535,0.596,0.342
8.325,0.585,0.578,0.402
8.33,0.703,0.615,0.266
8.335,0.749,0.598,0.364
8.34,0.712,0.63,0.369
8.345,0.84,0.556,0.347
8.35,0.742,0.545,0.228
8.355,0.734,0.503,0.289
8.36,0.839,0.635,0.247
8.365,0.771,0.507,0.218
8.37,0.755,0.509,0.17
8.375,0.756,0.519,0.143
8.38,0.705,0.512,0.083
8.385,0.721,0.345,0.075
8.39,0.799,0.343,0.133
8.395,0.809,0.437,0.08
8.4,0.725,0.412,0.047
8.405,0.653,0.241,-0.04
8.41,0.698,0.35,-0.035
8.415,0.604,0.297,0.063
8.42,0.695,0.24,-0.025
8.425,0.63,0.184,-0.055
8.43,0.517,0.167,-0.072
8.435,0.425,0.144,-0.157
8.44,0.444,0.126,-0.261
8.445,0.43,-0.013,-0.13
8.45,0.287,-0.044,-0.283
8.455,0.362,-0.103,-0.184
8.46,0.183,-0.111,-0.303
8.465,0.22,-0.134,-0.303
8.47,0.197,-0.072,-0.228
8.475,0.172,-0.148,-0.309
8.48,0.071,-0.264,-0.221
8.485,-0.007,-0.347,-0.384
8.49,-0.068,-0.317,-0.286
8.495,-0.071,-0.38,-0.464
8.5,-0.125,-0.409,-0.345
8.505,-0.239,-0.441,-0.384
8.51,-0.203,-0.451,-0.398
8.515,-0.301,-0.463,-0.46
8.52,-0.379,-0.512,-0.434
8.525,-0.396,-0.57,-0.355
8.53,-0.408,-0.535,-0.331
8.535,-0.48,-0.54,-0.408
8.54,-0.535,-0.561,-0.327
8.545,-0.613,-0.599,-0.309
8.55,-0.61,-0.661,-0.443
8.555,-0.734,-0.515,-0.399
8.56,-0.785,-0.57,-0.391
8.565,-0.644,-0.615,-0.313
8.57,-0.74,-0.637,-0.206
8.575,-0.812,-0.533,-0.418
8.58,-0.792,-0.595,-0.257
8.585,-0.773,-0.593,-0.34
8.59,-0.765,-0.553,-0.286
8.595,-0.837,-0.576,-0.299
8.6,-0.792,-0.516,-0.134
8.605,-0.79,-0.537,-0.181
8.61,-0.839,-0.444,-0.15
8.615,-0.824,-0.496,-0.127
8.62,-0.698,-0.486,-0.058
8.625,-0.82,-0.346,-0.127
8.63,-0.666,-0.3,-0.003
8.635,-0.678,-0.327,0.001
8.64,-0.692,-0.269,-0.024
8.645,-0.634,-0.273,0.071
8.65,-0.559,-0.175,0.12
8.655,-0.611,-0.151,0.077
8.66,-0.633,-0.151,0.083
8.665,-0.497,-0.018,0.029
8.67,-0.529,-0.153,0.113
8.675,-0.439,-0.078,0.203
8.68,-0.361,-0.011,0.147
8.685,-0.422,0.0,0.114
8.69,-0.285,0.169,0.254
8.695,-0.231,0.075,0.243
8.7,-0.178,0.139,0.349
8.705,-0.181,0.251,0.302
8.71,-0.035,0.22,0.419
8.715,-0.078,0.234,0.307
8.72,0.075,0.301,0.372
8.725,0.094,0.366,0.329
8.73,0.163,0.36,0.407
8.735,0.228,0.39,0.437
8.74,0.234,0.533,0.376
8.745,0.384,0.511,0.438
8.75,0.441,0.414,0.371
8.755,0.41,0.554,0.429
8.76,0.576,0.507,0.447
8.765,0.451,0.602,0.376
8.77,0.55,0.631,0.381
8.775,0.54,0.581,0.415
8.78,0.6,0.629,0.451
8.785,0.663,0.627,0.384
8.79,0.715,0.626,0.4
8.795,0.705,0.561,0.293
8.8,0.758,0.636,0.233
8.805,0.782,0.561,0.276
8.81,0.688,0.581,0.258
8.815,0.793,0.48,0.252
8.82,0.797,0.553,0.179
8.825,0.81,0.574,0.212
8.83,0.852,0.588,0.135
8.835,0.816,0.543,0.16
8.84,0.793,0.477,0.044
8.845,0.782,0.541,0.08
8.85,0.769,0.443,0.01
8.855,0.714,0.395,0.045
8.86,0.68,0.308,0.036
8.865,0.659,0.369,-0.023
8.87,0.7,0.342,0.024
8.875,0.755,0.253,-0.073
8.88,0.604,0.176,-0.142
8.885,0.58,0.197,-0.155
8.89,0.47,0.136,0.002
8.895,0.558,0.029,-0.082
8.9,0.441,0.057,-0.086
8.905,0.359,-0.065,-0.196
8.91,0.379,-0.117,-0.206
8.915,0.195,-0.072,-0.251
8.92,0.335,-0.088,-0.333
8.925,0.169,-0.2,-0.247
8.93,0.139,-0.147,-0.202
8.935,-0.021,-0.149,-0.307
8.94,0.149,-0.294,-0.299
8.945,0.02,-0.345,-0.351
8.95,-0.048,-0.329,-0.367
8.955,-0.066,-0.354,-0.239
8.96,-0.2,-0.415,-0.303
8.965,-0.123,-0.42,-0.376
8.97,-0.222,-0.46,-0.417
8.975,-0.253,-0.445,-0.416
8.98,-0.411,-0.575,-0.38
8.985,-0.489,-0.506,-0.34
8.99,-0.486,-0.523,-0.441
8.995,-0.547,-0.574,-0.358
9.0,-0.593,-0.53,-0.378
9.005,-0.566,-0.568,-0.283
9.01,-0.539,-0.679,-0.318
9.015,-0.681,-0.642,-0.444
9.02,-0.656,-0.585,-0.389
9.025,-0.783,-0.621,-0.365
9.03,-0.703,-0.584,-0.354
9.035,-0.738,-0.595,-0.283
9.04,-0.754,-0.612,-0.236
9.045,-0.789,-0.516,-0.31
9.05,-0.815,-0.586,-0.284
9.055,-0.818,-0.489,-0.197
9.06,-0.833,-0.492,-0.206
9.065,-0.821,-0.608,-0.166
9.07,-0.688,-0.459,-0.208
9.075,-0.801,-0.428,-0.092
9.08,-0.804,-0.336,-0.064
9.085,-0.764,-0.405,0.0
9.09,-0.728,-0.321,-0.064
9.095,-0.727,-0.25,0.034
9.1,-0.655,-0.298,-0.011
9.105,-0.579,-0.18,-0.02
9.11,-0.629,-0.256,0.142
9.115,-0.571,-0.149,0.145
9.12,-0.58,-0.052,-0.026
9.125,-0.542,-0.076,0.18
9.13,-0.469,-0.042,0.194
9.135,-0.408,-0.059,0.265
9.14,-0.318,0.072,0.234
9.145,-0.205,0.051,0.238
9.15,-0.288,0.07,0.193
9.155,-0.215,0.121,0.2
9.16,-0.138,0.262,0.397
9.165,-0.146,0.13,0.283
9.17,-0.066,0.287,0.363
9.175,-0.042,0.259,0.245
9.18,0.024,0.291,0.31
9.185,0.086,0.246,0.363
9.19,0.197,0.508,0.398
9.195,0.193,0.465,0.419
9.2,0.27,0.353,0.34
9.205,0.333,0.482,0.442
9.21,0.322,0.485,0.396
9.215,0.444,0.536,0.379
9.22,0.407,0.522,0.397
9.225,0.438,0.597,0.432
9.23,0.576,0.638,0.399
9.235,0.461,0.594,0.359
9.24,0.675,0.635,0.364
9.245,0.687,0.624,0.291
9.25,0.739,0.659,0.352
9.255,0.777,0.627,0.325
9.26,0.753,0.553,0.385
9.265,0.765,0.612,0.285
9.27,0.807,0.523,0.339
9.275,0.813,0.604,0.152
9.28,0.782,0.635,0.386
9.285,0.814,0.589,0.213
9.29,0.731,0.537,0.139
9.295,0.796,0.474,0.177
9.3,0.813,0.555,0.161
9.305,0.838,0.488,0.132
9.31,0.781,0.265,0.061
9.315,0.776,0.426,0.091
9.32,0.722,0.33,0.037
9.325,0.797,0.282,0.011
9.33,0.736,0.356,0.05
9.335,0.661,0.232,-0.088
9.34,0.671,0.135,-0.01
9.345,0.626,0.121,-0.085
9.35,0.523,0.154,-0.133
9.355,0.468,0.082,-0.202
9.36,0.549,-0.03,-0.146
9.365,0.411,-0.068,-0.235
9.37,0.33,-0.048,-0.171
9.375,0.311,-0.072,-0.253
9.38,0.24,-0.108,-0.211
9.385,0.113,-0.128,-0.223
9.39,0.201,-0.191,-0.283
9.395,0.066,-0.292,-0.397
9.4,0.078,-0.243,-0.377
9.405,0.048,-0.331,-0.362
9.41,-0.065,-0.249,-0.385
9.415,-0.062,-0.375,-0.49
9.42,-0.309,-0.508,-0.48
9.425,-0.187,-0.399,-0.306
9.43,-0.327,-0.557,-0.515
9.435,-0.314,-0.466,-0.463
9.44,-0.354,-0.561,-0.387
9.445,-0.408,-0.615,-0.342
9.45,-0.56,-0.561,-0.37
9.455,-0.514,-0.689,-0.321
9.46,-0.609,-0.598,-0.457
9.465,-0.656,-0.619,-0.293
9.47,-0.77,-0.606,-0.369
9.475,-0.681,-0.527,-0.28
9.48,-0.608,-0.608,-0.323
9.485,-0.677,-0.606,-0.369
9.49,-0.763,-0.716,-0.29
9.495,-0.709,-0.578,-0.221
9.5,-0.76,-0.57,-0.316
9.505,-0.801,-0.573,-0.265
9.51,-0.783,-0.527,-0.245
9.515,-0.842,-0.555,-0.267
9.52,-0.808,-0.569,-0.193
9.525,-0.807,-0.441,-0.097
9.53,-0.81,-0.427,-0.14
9.535,-0.791,-0.4,-0.065
9.54,-0.706,-0.452,-0.115
9.545,-0.618,-0.332,-0.14
9.55,-0.649,-0.352,-0.111
9.555,-0.715,-0.317,-0.099
9.56,-0.633,-0.313,-0.002
9.565,-0.646,-0.17,0.177
9.57,-0.6,-0.289,0.119
9.575,-0.557,-0.152,0.04
9.58,-0.48,-0.104,0.08
9.585,-0.436,0.008,0.072
9.59,-0.459,-0.023,0.115
9.595,-0.412,-0.098,0.201
9.6,-0.344,0.036,0.253
9.605,-0.327,0.063,0.213
9.61,-0.262,0.093,0.306
9.615,-0.25,0.168,0.236
9.62,-0.162,0.281,0.33
9.625,-0.073,0.192,0.348
9.63,-0.079,0.29,0.248
9.635,0.006,0.211,0.251
9.64,0.048,0.286,0.397
9.645,0.121,0.47,0.344
9.65,0.175,0.363,0.363
9.655,0.287,0.379,0.364
9.66,0.33,0.46,0.457
9.665,0.292,0.474,0.387
9.67,0.292,0.481,0.337
9.675,0.507,0.593,0.468
9.68,0.493,0.524,0.397
9.685,0.608,0.629,0.405
9.69,0.562,0.613,0.37
9.695,0.59,0.663,0.356
9.7,0.618,0.624,0.37
9.705,0.659,0.645,0.41
9.71,0.746,0.669,0.355
9.715,0.621,0.567,0.384
9.72,0.791,0.639,0.278
9.725,0.664,0.606,0.27
9.73,0.725,0.581,0.157
9.735,0.754,0.641,0.194
9.74,0.826,0.509,0.259
9.745,0.751,0.536,0.256
9.75,0.778,0.585,0.183
9.755,0.65,0.395,0.167
9.76,0.832,0.485,0.113
9.765,0.768,0.397,0.141
9.77,0.691,0.42,0.185
9.775,0.809,0.449,0.042
9.78,0.706,0.403,0.07
9.785,0.749,0.306,-0.044
9.79,0.712,0.24,-0.11
9.795,0.635,0.313,-0.022
9.8,0.604,0.187,-0.136
9.805,0.515,0.183,-0.109
9.81,0.532,0.245,-0.132
9.815,0.476,0.055,-0.205
9.82,0.42,0.104,-0.148
9.825,0.307,-0.083,-0.23
9.83,0.346,-0.149,-0.105
9.835,0.261,-0.119,-0.29
9.84,0.175,-0.102,-0.319
9.845,0.134,-0.132,-0.292
9.85,0.154,-0.206,-0.278
9.855,0.037,-0.292,-0.277
9.86,0.067,-0.321,-0.277
9.865,-0.018,-0.299,-0.409
9.87,-0.026,-0.418,-0.312
9.875,-0.08,-0.39,-0.429
9.88,-0.15,-0.244,-0.313
9.885,-0.189,-0.357,-0.295
9.89,-0.211,-0.459,-0.388
9.895,-0.263,-0.561,-0.407
9.9,-0.354,-0.502,-0.469
9.905,-0.359,-0.593,-0.359
9.91,-0.435,-0.603,-0.399
9.915,-0.423,-0.597,-0.433
9.92,-0.603,-0.592,-0.413
9.925,-0.598,-0.517,-0.411
9.93,-0.545,-0.548,-0.348
9.935,-0.622,-0.585,-0.322
9.94,-0.722,-0.603,-0.315
9.945,-0.796,-0.683,-0.34
9.95,-0.722,-0.57,-0.29
9.955,-0.75,-0.592,-0.286
9.96,-0.757,-0.542,-0.283
9.965,-0.822,-0.572,-0.263
9.97,-0.835,-0.413,-0.259
9.975,-0.716,-0.533,-0.247
9.98,-0.873,-0.494,-0.215
9.985,-0.768,-0.429,-0.143
9.99,-0.801,-0.385,-0.169
9.995,-0.744,-0.453,-0.154
10.0,-0.698,-0.399,-0.086
10.005,-0.695,-0.399,-0.074
10.01,-0.651,-0.309,-0.076
10.015,-0.64,-0.342,-0.011
10.02,-0.618,-0.308,-0.036
10.025,-0.671,-0.221,0.174
10.03,-0.605,-0.248,0.136
10.035,-0.527,-0.13,0.081
10.04,-0.541,-0.104,0.161
10.045,-0.458,-0.143,0.207
10.05,-0.396,0.078,0.143
10.055,-0.347,-0.014,0.224
10.06,-0.311,0.065,0.207
10.065,-0.336,0.166,0.275
10.07,-0.249,0.14,0.4
10.075,-0.167,0.298,0.304
10.08,-0.132,0.224,0.391
10.085,-0.08,0.246,0.356
10.09,0.001,0.341,0.301
10.095,0.082,0.437,0.277
10.1,0.109,0.351,0.302
10.105,0.07,0.377,0.374
10.11,0.059,0.386,0.431
10.115,0.211,0.491,0.376
10.12,0.197,0.468,0.411
10.125,0.32,0.462,0.42
10.13,0.471,0.53,0.414
10.135,0.434,0.525,0.365
10.14,0.517,0.583,0.496
10.145,0.49,0.616,0.394
10.15,0.585,0.644,0.438
10.155,0.652,0.658,0.344
10.16,0.699,0.588,0.425
10.165,0.7,0.663,0.376
10.17,0.661,0.629,0.273
10.175,0.756,0.647,0.331
10.18,0.749,0.51,0.335
10.185,0.711,0.551,0.363
10.19,0.744,0.613,0.249
10.195,0.866,0.579,0.34
10.2,0.79,0.505,0.222
10.205,0.86,0.601,0.133
10.21,0.748,0.504,0.159
10.215,0.857,0.471,0.126
10.22,0.804,0.374,0.152
10.225,0.839,0.349,0.125
10.23,0.769,0.44,0.036
10.235,0.815,0.383,0.069
10.24,0.684,0.277,0.01
10.245,0.682,0.246,-0.037
10.25,0.699,0.276,0.008
10.255,0.653,0.267,-0.122
10.26,0.638,0.259,-0.188
10.265,0.579,0.135,-0.157
10.27,0.499,0.173,-0.183
10.275,0.475,-0.023,-0.16
10.28,0.473,0.013,-0.138
10.285,0.486,-0.075,-0.187
10.29,0.372,-0.063,-0.171
10.295,0.26,-0.078,-0.234
10.3,0.266,-0.116,-0.292
10.305,0.137,-0.154,-0.208
10.31,0.128,-0.201,-0.422
10.315,0.102,-0.275,-0.382
10.32,-0.021,-0.358,-0.395
10.325,-0.023,-0.298,-0.433
10.33,-0.123,-0.305,-0.442
10.335,-0.107,-0.343,-0.411
10.34,-0.144,-0.481,-0.437
10.345,-0.262,-0.432,-0.323
10.35,-0.297,-0.468,-0.491
10.355,-0.349,-0.444,-0.416
10.36,-0.347,-0.45,-0.434
10.365,-0.473,-0.621,-0.461
10.37,-0.521,-0.486,-0.331
10.375,-0.554,-0.561,-0.305
10.38,-0.585,-0.553,-0.393
10.385,-0.611,-0.567,-0.411
10.39,-0.651,-0.633,-0.382
10.395,-0.726,-0.596,-0.404
10.4,-0.702,-0.596,-0.275
10.405,-0.742,-0.595,-0.374
10.41,-0.778,-0.554,-0.306
10.415,-0.798,-0.592,-0.247
10.42,-0.801,-0.49,-0.206
10.425,-0.785,-0.597,-0.133
10.43,-0.774,-0.603,-0.175
10.435,-0.804,-0.59,-0.082
10.44,-0.744,-0.51,-0.191
10.445,-0.696,-0.35,-0.215
10.45,-0.781,-0.441,-0.224
10.455,-0.822,-0.392,-0.142
10.46,-0.853,-0.361,-0.049
10.465,-0.729,-0.458,-0.04
10.47,-0.698,-0.277,-0.011
10.475,-0.767,-0.311,0.016
10.48,-0.625,-0.222,0.074
10.485,-0.634,-0.24,0.142
10.49,-0.517,-0.195,0.093
10.495,-0.613,-0.21,0.091
10.5,-0.478,-0.036,0.149
10.505,-0.464,-0.052,0.215
10.51,-0.456,0.06,0.191
10.515,-0.394,0.011,0.157
10.52,-0.281,0.064,0.202
10.525,-0.273,0.051,0.227
10.53,-0.216,0.102,0.302
10.535,-0.147,0.202,0.299
10.54,-0.194,0.225,0.284
10.545,-0.116,0.302,0.443
10.55,-0.009,0.259,0.333
10.555,0.058,0.397,0.237
10.56,0.12,0.397,0.303
10.565,0.24,0.427,0.35
10.57,0.216,0.45,0.384
10.575,0.198,0.534,0.38
10.58,0.331,0.401,0.469
10.585,0.396,0.548,0.393
10.59,0.469,0.465,0.393
10.595,0.443,0.572,0.449
10.6,0.427,0.526,0.381
10.605,0.536,0.564,0.325
10.61,0.576,0.606,0.355
10.615,0.611,0.635,0.4
10.62,0.656,0.532,0.389
10.625,0.711,0.512,0.334
10.63,0.766,0.584,0.31
10.635,0.722,0.62,0.3
10.64,0.706,0.601,0.277
10.645,0.742,0.562,0.323
10.65,0.824,0.504,0.216
10.655,0.861,0.557,0.2
10.66,0.854,0.618,0.221
10.665,0.869,0.661,0.131
10.67,0.766,0.511,0.079
10.675,0.763,0.489,0.154
10.68,0.734,0.509,0.155
10.685,0.735,0.406,0.01
10.69,0.832,0.39,0.057
10.695,0.752,0.421,0.083
10.7,0.777,0.263,0.01
10.705,0.698,0.277,-0.004
10.71,0.654,0.242,-0.041
10.715,0.566,0.242,-0.067
10.72,0.571,0.119,-0.064
10.725,0.59,0.129,-0.157
10.73,0.496,0.109,-0.22
10.735,0.468,0.035,-0.143
10.74,0.33,0.003,-0.193
10.745,0.351,-0.131,-0.168
10.75,0.408,-0.162,-0.18
10.755,0.296,-0.129,-0.17
10.76,0.254,-0.161,-0.294
10.765,0.181,-0.167,-0.298
10.77,0.152,-0.238,-0.333
10.775,0.088,-0.236,-0.363
10.78,-0.049,-0.317,-0.325
10.785,-0.064,-0.377,-0.349
10.79,-0.057,-0.446,-0.387
10.795,-0.15,-0.389,-0.478
10.8,-0.192,-0.407,-0.388
10.805,-0.213,-0.51,-0.337
10.81,-0.231,-0.526,-0.448
10.815,-0.388,-0.428,-0.39
10.82,-0.487,-0.385,-0.433
10.825,-0.456,-0.591,-0.487
10.83,-0.445,-0.563,-0.379
10.835,-0.591,-0.551,-0.434
10.84,-0.609,-0.565,-0.405
10.845,-0.628,-0.613,-0.354
10.85,-0.628,-0.579,-0.392
10.855,-0.745,-0.618,-0.36
10.86,-0.724,-0.704,-0.307
10.865,-0.737,-0.6,-0.304
10.87,-0.898,-0.619,-0.265
10.875,-0.687,-0.565,-0.231
10.88,-0.827,-0.582,-0.25
10.885,-0.811,-0.62,-0.22
10.89,-0.803,-0.544,-0.264
10.895,-0.847,-0.631,-0.222
10.9,-0.8,-0.465,-0.23
10.905,-0.692,-0.524,-0.127
10.91,-0.675,-0.459,-0.126
10.915,-0.741,-0.387,-0.167
10.92,-0.77,-0.235,-0.045
10.925,-0.868,-0.255,-0.169
10.93,-0.718,-0.326,-0.064
10.935,-0.601,-0.221,-0.114
10.94,-0.693,-0.278,0.031
10.945,-0.65,-0.204,0.156
10.95,-0.566,-0.038,0.078
10.955,-0.604,-0.124,0.168
10.96,-0.475,-0.076,0.201
10.965,-0.433,-0.07,0.185
10.97,-0.391,0.049,0.188
10.975,-0.391,-0.016,0.314
10.98,-0.298,0.059,0.252
10.985,-0.107,0.108,0.203
10.99,-0.253,0.193,0.324
10.995,-0.194,0.257,0.338
11.0,-0.145,0.235,0.31
11.005,-0.027,0.25,0.252
11.01,-0.008,0.332,0.296
11.015,0.165,0.378,0.348
11.02,0.105,0.459,0.414
11.025,0.221,0.352,0.358
11.03,0.253,0.408,0.419
11.035,0.244,0.424,0.455
11.04,0.314,0.556,0.462
11.045,0.507,0.477,0.443
11.05,0.451,0.591,0.376
11.055,0.399,0.572,0.459
11.06,0.531,0.569,0.364
11.065,0.612,0.602,0.378
11.07,0.578,0.646,0.471
11.075,0.651,0.552,0.424
11.08,0.646,0.55,0.358
11.085,0.706,0.654,0.495
11.09,0.723,0.657,0.312
11.095,0.669,0.742,0.367
11.1,0.777,0.636,0.289
11.105,0.678,0.515,0.355
11.11,0.8,0.661,0.248
11.115,0.804,0.492,0.284
11.12,0.8,0.473,0.219
11.125,0.801,0.534,0.229
11.13,0.829,0.476,0.117
11.135,0.756,0.485,0.154
11.14,0.895,0.538,0.215
11.145,0.776,0.404,0.11
11.15,0.846,0.401,0.045
11.155,0.738,0.352,0.037
11.16,0.693,0.409,-0.053
11.165,0.662,0.244,-0.052
11.17,0.634,0.215,-0.085
11.175,0.631,0.25,-0.025
11.18,0.659,0.2,-0.105
11.185,0.491,0.144,-0.044
11.19,0.496,0.015,-0.172
11.195,0.39,0.089,-0.124
11.2,0.464,-0.044,-0.207
11.205,0.254,-0.155,-0.215
11.21,0.29,-0.027,-0.284
11.215,0.261,-0.202,-0.205
11.22,0.215,-0.136,-0.206
11.225,0.183,-0.167,-0.336
11.23,0.139,-0.198,-0.388
11.235,0.068,-0.29,-0.393
11.24,0.022,-0.292,-0.344
11.245,-0.07,-0.3,-0.329
11.25,-0.122,-0.398,-0.331
11.255,-0.152,-0.42,-0.409
11.26,-0.255,-0.404,-0.348
11.265,-0.316,-0.448,-0.393
11.27,-0.367,-0.434,-0.387
11.275,-0.393,-0.473,-0.38
11.28,-0.4,-0.567,-0.46
11.285,-0.45,-0.529,-0.425
11.29,-0.547,-0.579,-0.402
11.295,-0.521,-0.61,-0.34
11.3,-0.639,-0.641,-0.374
11.305,-0.605,-0.572,-0.359
11.31,-0.636,-0.663,-0.404
11.315,-0.713,-0.622,-0.305
11.32,-0.744,-0.565,-0.41
11.325,-0.724,-0.59,-0.257
11.33,-0.871,-0.58,-0.382
11.335,-0.734,-0.586,-0.214
11.34,-0.817,-0.6,-0.274
11.345,-0.727,-0.48,-0.317
11.35,-0.723,-0.492,-0.341
11.355,-0.859,-0.571,-0.265
11.36,-0.828,-0.468,-0.174
11.365,-0.831,-0.491,-0.196
11.37,-0.807,-0.454,-0.098
11.375,-0.866,-0.32,-0.024
11.38,-0.765,-0.401,-0.02
11.385,-0.663,-0.345,-0.032
11.39,-0.74,-0.331,-0.065
11.395,-0.696,-0.233,0.003
11.4,-0.641,-0.266,0.054
11.405,-0.59,-0.197,0.077
11.41,-0.618,-0.099,0.132
11.415,-0.586,-0.085,0.2
11.42,-0.473,-0.179,0.106
11.425,-0.464,-0.008,0.217
11.43,-0.416,0.013,0.19
11.435,-0.374,-0.02,0.253
11.44,-0.348,0.151,0.276
11.445,-0.181,0.097,0.322
11.45,-0.151,0.199,0.395
11.455,-0.147,0.222,0.339
11.46,-0.119,0.258,0.274
11.465,-0.064,0.329,0.439
11.47,0.045,0.337,0.417
11.475,0.093,0.347,0.393
11.48,0.065,0.445,0.388
11.485,0.153,0.383,0.454
11.49,0.28,0.515,0.336
11.495,0.365,0.497,0.379
11.5,0.336,0.411,0.386
11.505,0.413,0.536,0.496
11.51,0.396,0.54,0.371
11.515,0.529,0.575,0.437
11.52,0.429,0.528,0.289
11.525,0.507,0.566,0.389
11.53,0.48,0.531,0.351
11.535,0.644,0.571,0.383
11.54,0.548,0.592,0.29
11.545,0.658,0.584,0.286
11.55,0.599,0.726,0.415
11.555,0.683,0.629,0.412
11.56,0.749,0.49,0.288
11.565,0.724,0.66,0.239
11.57,0.858,0.616,0.199
11.575,0.815,0.507,0.292
11.58,0.789,0.597,0.202
11.585,0.735,0.484,0.191
11.59,0.809,0.467,0.183
11.595,0.759,0.461,0.131
11.6,0.868,0.419,0.135
11.605,0.709,0.316,0.075
11.61,0.806,0.413,0.102
11.615,0.702,0.347,0.033
11.62,0.679,0.362,0.034
11.625,0.781,0.261,-0.042
11.63,0.677,0.17,-0.092
11.635,0.66,0.276,-0.029
11.64,0.58,0.172,-0.162
11.645,0.544,0.136,-0.162
11.65,0.456,0.122,-0.201
11.655,0.437,0.042,-0.242
11.66,0.457,-0.013,-0.187
11.665,0.256,-0.09,-0.306
11.67,0.294,-0.131,-0.298
11.675,0.252,-0.145,-0.25
11.68,0.145,-0.056,-0.264
11.685,0.136,-0.107,-0.288
11.69,0.174,-0.317,-0.291
11.695,0.031,-0.248,-0.371
11.7,-0.051,-0.301,-0.364
11.705,-0.128,-0.376,-0.317
11.71,-0.197,-0.404,-0.428
11.715,-0.277,-0.46,-0.424
11.72,-0.256,-0.326,-0.395
11.725,-0.32,-0.42,-0.358
11.73,-0.3,-0.496,-0.42
11.735,-0.367,-0.546,-0.277
11.74,-0.409,-0.553,-0.484
11.745,-0.414,-0.557,-0.38
11.75,-0.567,-0.541,-0.406
11.755,-0.601,-0.52,-0.437
11.76,-0.586,-0.57,-0.395
11.765,-0.644,-0.517,-0.448
11.77,-0.769,-0.623,-0.295
11.775,-0.729,-0.579,-0.327
11.78,-0.708,-0.627,-0.377
11.785,-0.857,-0.649,-0.453
11.79,-0.761,-0.647,-0.315
11.795,-0.796,-0.575,-0.283
11.8,-0.798,-0.496,-0.265
11.805,-0.816,-0.468,-0.233
11.81,-0.772,-0.508,-0.135
11.815,-0.745,-0.386,-0.153
11.82,-0.783,-0.491,-0.242
11.825,-0.775,-0.505,-0.071
11.83,-0.677,-0.461,-0.084
11.835,-0.71,-0.333,-0.128
11.84,-0.726,-0.424,-0.092
11.845,-0.707,-0.449,-0.004
11.85,-0.761,-0.33,-0.097
11.855,-0.696,-0.237,-0.071
11.86,-0.679,-0.243,0.092
11.865,-0.589,-0.235,0.058
11.87,-0.566,-0.171,0.104
11.875,-0.54,-0.079,0.128
11.88,-0.409,-0.041,0.176
11.885,-0.401,-0.073,0.25
11.89,-0.398,-0.003,0.292
11.895,-0.326,-0.028,0.238
11.9,-0.289,0.117,0.24
11.905,-0.225,0.095,0.31
11.91,-0.085,0.188,0.316
11.915,-0.11,0.255,0.275
11.92,-0.188,0.267,0.333
11.925,-0.076,0.31,0.432
11.93,0.109,0.314,0.347
11.935,0.194,0.374,0.379
11.94,0.207,0.488,0.307
11.945,0.165,0.489,0.379
11.95,0.236,0.484,0.369
11.955,0.27,0.55,0.413
11.96,0.275,0.484,0.416
11.965,0.439,0.483,0.389
11.97,0.477,0.469,0.37
11.975,0.45,0.53,0.453
11.98,0.524,0.615,0.396
11.985,0.58,0.475,0.327
11.99,0.662,0.605,0.476
11.995,0.666,0.652,0.295
12.0,0.72,0.422,0.317
12.005,0.82,0.741,0.296
12.01,0.818,0.629,0.367
12.015,0.709,0.587,0.266
12.02,0.784,0.581,0.246
12.025,0.774,0.484,0.264
12.03,0.84,0.616,0.288
12.035,0.857,0.481,0.261
12.04,0.898,0.465,0.243
12.045,0.835,0.466,0.215
12.05,0.859,0.458,0.154
12.055,0.781,0.55,0.139
12.06,0.693,0.445,0.044
12.065,0.793,0.338,0.152
12.07,0.68,0.459,0.078
12.075,0.698,0.373,-0.048
12.08,0.618,0.276,-0.033
12.085,0.611,0.283,-0.027
12.09,0.655,0.267,-0.074
12.095,0.504,0.233,-0.081
12.1,0.583,0.182,-0.102
12.105,0.418,0.172,-0.105
12.11,0.453,-0.017,-0.216
12.115,0.398,0.051,-0.191
12.12,0.401,-0.036,-0.295
12.125,0.397,-0.15,-0.311
12.13,0.227,-0.041,-0.293
12.135,0.187,-0.134,-0.277
12.14,0.105,-0.182,-0.29
12.145,0.115,-0.153,-0.41
12.15,0.057,-0.272,-0.374
12.155,0.047,-0.253,-0.393
12.16,0.03,-0.433,-0.377
12.165,-0.055,-0.447,-0.325
12.17,-0.166,-0.332,-0.468
12.175,-0.221,-0.484,-0.43
12.18,-0.335,-0.383,-0.435
12.185,-0.264,-0.466,-0.347
12.19,-0.39,-0.527,-0.469
12.195,-0.428,-0.527,-0.398
12.2,-0.439,-0.554,-0.461
12.205,-0.484,-0.575,-0.416
12.21,-0.548,-0.637,-0.419
12.215,-0.498,-0.499,-0.366
12.22,-0.627,-0.549,-0.368
12.225,-0.667,-0.423,-0.448
12.23,-0.631,-0.585,-0.354
12.235,-0.682,-0.601,-0.359
12.24,-0.709,-0.633,-0.313
12.245,-0.731,-0.569,-0.249
12.25,-0.79,-0.57,-0.209
12.255,-0.837,-0.602,-0.381
12.26,-0.835,-0.482,-0.269
12.265,-0.785,-0.589,-0.229
12.27,-0.897,-0.512,-0.254
12.275,-0.809,-0.585,-0.255
12.28,-0.855,-0.475,-0.184
12.285,-0.761,-0.467,-0.088
12.29,-0.797,-0.429,-0.161
12.295,-0.753,-0.342,-0.129
12.3,-0.696,-0.32,0.011
12.305,-0.724,-0.296,0.078
12.31,-0.78,-0.272,0.068
12.315,-0.63,-0.307,0.069
12.32,-0.615,-0.282,0.094
12.325,-0.656,-0.149,0.114
12.33,-0.512,-0.112,0.138
12.335,-0.482,-0.033,0.093
12.34,-0.636,-0.044,0.206
12.345,-0.44,0.042,0.15
12.35,-0.41,0.114,0.159
12.355,-0.136,0.164,0.219
12.36,-0.249,0.131,0.315
12.365,-0.142,0.161,0.34
12.37,-0.162,0.163,0.351
12.375,-0.04,0.163,0.386
12.38,-0.03,0.284,0.316
12.385,-0.019,0.298,0.278
12.39,0.019,0.373,0.328
12.395,0.166,0.411,0.313
12.4,0.213,0.461,0.409
12.405,0.343,0.502,0.456
12.41,0.309,0.463,0.402
12.415,0.27,0.464,0.476
12.42,0.355,0.436,0.425
12.425,0.446,0.47,0.386
12.43,0.49,0.645,0.314
12.435,0.509,0.619,0.387
12.44,0.518,0.585,0.436
12.445,0.487,0.635,0.367
12.45,0.738,0.54,0.434
12.455,0.703,0.522,0.349
12.46,0.677,0.698,0.33
12.465,0.583,0.628,0.367
12.47,0.725,0.58,0.307
12.475,0.739,0.508,0.323
12.48,0.704,0.654,0.322
12.485,0.774,0.606,0.144
12.49,0.712,0.592,0.221
12.495,0.759,0.502,0.214
12.5,0.797,0.47,0.226
12.505,0.83,0.556,0.166
12.51,0.805,0.413,0.181
12.515,0.735,0.476,0.075
12.52,0.729,0.491,0.173
12.525,0.793,0.328,0.035
12.53,0.764,0.32,0.166
12.535,0.652,0.334,-0.001
12.54,0.651,0.284,-0.007
12.545,0.788,0.263,0.006
12.55,0.597,0.237,-0.002
12.555,0.529,0.159,-0.096
12.56,0.514,0.137,-0.073
12.565,0.464,0.104,-0.196
12.57,0.455,-0.004,-0.155
12.575,0.443,0.013,-0.186
12.58,0.379,0.005,-0.196
12.585,0.338,-0.066,-0.169
12.59,0.368,-0.122,-0.254
12.595,0.19,-0.062,-0.327
12.6,0.118,-0.189,-0.416
12.605,0.062,-0.213,-0.326
12.61,0.026,-0.312,-0.369
12.615,-0.049,-0.305,-0.304
12.62,-0.129,-0.373,-0.421
12.625,-0.166,-0.385,-0.35
12.63,-0.195,-0.353,-0.372
12.635,-0.215,-0.537,-0.417
12.64,-0.258,-0.429,-0.369
12.645,-0.376,-0.568,-0.4
12.65,-0.336,-0.534,-0.338
12.655,-0.452,-0.568,-0.387
12.66,-0.425,-0.505,-0.343
12.665,-0.545,-0.62,-0.456
12.67,-0.476,-0.54,-0.41
12.675,-0.641,-0.621,-0.486
12.68,-0.671,-0.558,-0.405
12.685,-0.673,-0.596,-0.376
12.69,-0.619,-0.551,-0.343
12.695,-0.662,-0.562,-0.266
12.7,-0.774,-0.684,-0.377
12.705,-0.737,-0.613,-0.267
12.71,-0.816,-0.58,-0.237
12.715,-0.747,-0.586,-0.32
12.72,-0.842,-0.529,-0.227
12.725,-0.853,-0.534,-0.155
12.73,-0.758,-0.486,-0.312
12.735,-0.779,-0.508,-0.118
12.74,-0.798,-0.433,-0.18
12.745,-0.784,-0.363,-0.118
12.75,-0.766,-0.374,-0.088
12.755,-0.776,-0.457,-0.075
12.76,-0.704,-0.347,0.025
12.765,-0.7,-0.339,-0.0
12.77,-0.69,-0.305,0.011
12.775,-0.69,-0.254,-0.029
12.78,-0.564,-0.159,0.032
12.785,-0.594,-0.106,0.121
12.79,-0.497,-0.064,0.025
12.795,-0.516,-0.066,0.133
12.8,-0.412,-0.055,0.15
12.805,-0.441,-0.053,0.19
12.81,-0.384,0.017,0.186
12.815,-0.216,0.156,0.269
12.82,-0.167,0.15,0.198
12.825,-0.22,0.128,0.354
12.83,-0.188,0.168,0.371
12.835,-0.083,0.207,0.335
12.84,-0.042,0.319,0.371
12.845,0.026,0.31,0.282
12.85,0.224,0.285,0.383
12.855,0.065,0.469,0.393
12.86,0.245,0.365,0.348
12.865,0.181,0.423,0.421
12.87,0.296,0.416,0.484
12.875,0.351,0.547,0.385
12.88,0.351,0.473,0.342
12.885,0.463,0.605,0.435
12.89,0.56,0.581,0.458
12.895,0.568,0.571,0.36
12.9,0.551,0.64,0.414
12.905,0.599,0.605,0.365
12.91,0.674,0.567,0.452
12.915,0.721,0.638,0.384
12.92,0.661,0.516,0.376
12.925,0.751,0.636,0.309
12.93,0.8,0.592,0.32
12.935,0.8,0.511,0.355
12.94,0.729,0.564,0.231
12.945,0.71,0.621,0.173
12.95,0.776,0.602,0.299
12.955,0.761,0.479,0.156
12.96,0.748,0.561,0.162
12.965,0.855,0.445,0.171
12.97,0.742,0.369,0.149
12.975,0.924,0.476,0.081
12.98,0.675,0.362,0.075
12.985,0.708,0.47,0.058
12.99,0.69,0.232,0.064
12.995,0.709,0.283,0.036
13.0,0.797,0.317,0.02
13.005,0.665,0.202,-0.042
13.01,0.535,0.232,-0.09
13.015,0.577,0.176,-0.075
13.02,0.604,0.095,-0.137
13.025,0.493,-0.029,-0.105
13.03,0.44,0.069,-0.181
13.035,0.407,-0.021,-0.199
13.04,0.342,-0.001,-0.159
13.045,0.321,-0.131,-0.257
13.05,0.25,-0.16,-0.3
13.055,0.113,-0.168,-0.338
13.06,0.178,-0.223,-0.271
13.065,0.118,-0.213,-0.307
13.07,0.066,-0.214,-0.288
13.075,-0.002,-0.279,-0.366
13.08,-0.08,-0.417,-0.313
13.085,-0.149,-0.411,-0.308
13.09,-0.216,-0.41,-0.415
13.095,-0.38,-0.322,-0.327
13.1,-0.334,-0.502,-0.385
13.105,-0.295,-0.489,-0.466
13.11,-0.346,-0.476,-0.434
13.115,-0.471,-0.596,-0.411
13.12,-0.386,-0.543,-0.357
13.125,-0.45,-0.448,-0.297
13.13,-0.647,-0.531,-0.393
13.135,-0.545,-0.628,-0.401
13.14,-0.613,-0.601,-0.362
13.145,-0.7,-0.54,-0.335
13.15,-0.725,-0.562,-0.304
13.155,-0.835,-0.633,-0.34
13.16,-0.739,-0.602,-0.36
13.165,-0.674,-0.583,-0.2
13.17,-0.761,-0.619,-0.331
13.175,-0.78,-0.594,-0.297
13.18,-0.875,-0.58,-0.349
13.185,-0.746,-0.5,-0.226
13.19,-0.685,-0.476,-0.214
13.195,-0.786,-0.532,-0.172
13.2,-0.795,-0.519,-0.173
13.205,-0.766,-0.47,-0.129
13.21,-0.708,-0.439,-0.068
13.215,-0.765,-0.325,-0.036
13.22,-0.726,-0.338,-0.076
13.225,-0.73,-0.279,-0.035
13.23,-0.647,-0.282,0.037
13.235,-0.659,-0.26,0.071
13.24,-0.582,-0.215,0.126
13.245,-0.55,-0.168,0.143
13.25,-0.659,-0.094,0.061
13.255,-0.473,-0.066,0.142
13.26,-0.333,-0.047,0.216
13.265,-0.371,-0.062,0.103
13.27,-0.353,0.005,0.199
13.275,-0.246,0.054,0.349
13.28,-0.28,0.122,0.332
13.285,-0.282,0.172,0.282
13.29,-0.037,0.125,0.369
13.295,-0.147,0.265,0.265
13.3,-0.072,0.302,0.301
13.305,0.006,0.401,0.403
13.31,0.045,0.329,0.345
13.315,0.097,0.515,0.33
13.32,0.15,0.522,0.37
13.325,0.206,0.379,0.432
13.33,0.373,0.407,0.288
13.335,0.297,0.429,0.395
13.34,0.29,0.44,0.343
13.345,0.478,0.587,0.37
13.35,0.536,0.597,0.497
13.355,0.597,0.568,0.326
13.36,0.608,0.536,0.383
13.365,0.661,0.594,0.323
13.37,0.606,0.639,0.425
13.375,0.605,0.669,0.298
13.38,0.704,0.541,0.337
13.385,0.765,0.557,0.284
13.39,0.72,0.617,0.287
13.395,0.855,0.608,0.218
13.4,0.81,0.539,0.185
13.405,0.799,0.605,0.268
13.41,0.746,0.499,0.109
13.415,0.776,0.483,0.3
13.42,0.751,0.48,0.251
13.425,0.835,0.466,0.037
13.43,0.77,0.386,0.107
13.435,0.834,0.434,0.174
13.44,0.797,0.362,0.07
13.445,0.802,0.366,0.015
13.45,0.737,0.395,0.071
13.455,0.664,0.262,0.085
13.46,0.645,0.252,-0.039
13.465,0.622,0.228,-0.106
13.47,0.607,0.179,0.017
13.475,0.482,0.157,-0.094
13.48,0.641,0.163,-0.184
13.485,0.476,0.082,-0.11
13.49,0.36,0.068,-0.214
13.495,0.34,0.068,-0.112
13.5,0.302,-0.055,-0.197
13.505,0.231,-0.102,-0.292
13.51,0.11,-0.135,-0.223
13.515,0.263,-0.14,-0.341
13.52,0.136,-0.242,-0.278
13.525,0.084,-0.258,-0.38
13.53,-0.001,-0.293,-0.281
13.535,-0.062,-0.329,-0.276
13.54,-0.138,-0.309,-0.338
13.545,-0.154,-0.406,-0.344
13.55,-0.241,-0.409,-0.419
13.555,-0.332,-0.362,-0.407
13.56,-0.34,-0.414,-0.376
13.565,-0.361,-0.494,-0.382
13.57,-0.429,-0.602,-0.401
13.575,-0.483,-0.508,-0.475
13.58,-0.456,-0.529,-0.331
13.585,-0.492,-0.569,-0.376
13.59,-0.486,-0.517,-0.293
13.595,-0.589,-0.546,-0.304
13.6,-0.694,-0.693,-0.362
13.605,-0.709,-0.439,-0.288
13.61,-0.714,-0.65,-0.347
13.615,-0.702,-0.492,-0.293
13.62,-0.792,-0.66,-0.255
13.625,-0.743,-0.622,-0.29
13.63,-0.7,-0.531,-0.333
13.635,-0.761,-0.585,-0.208
13.64,-0.844,-0.513,-0.209
13.645,-0.721,-0.476,-0.215
13.65,-0.858,-0.528,-0.24
13.655,-0.728,-0.468,-0.211
13.66,-0.777,-0.447,-0.099
13.665,-0.775,-0.428,-0.168
13.67,-0.768,-0.398,-0.029
13.675,-0.704,-0.361,-0.054
13.68,-0.698,-0.425,0.035
13.685,-0.701,-0.245,-0.029
13.69,-0.68,-0.176,-0.045
13.695,-0.627,-0.271,-0.033
13.7,-0.544,-0.229,0.129
13.705,-0.62,-0.193,0.098
13.71,-0.486,-0.154,0.233
13.715,-0.464,-0.117,0.156
13.72,-0.441,-0.048,0.221
13.725,-0.358,0.022,0.225
13.73,-0.31,0.115,0.211
13.735,-0.365,0.193,0.19
13.74,-0.265,0.063,0.334
13.745,-0.202,0.125,0.336
13.75,-0.077,0.349,0.34
13.755,0.006,0.274,0.379
13.76,-0.067,0.27,0.377
13.765,-0.061,0.268,0.359
13.77,0.069,0.44,0.269
13.775,0.034,0.498,0.359
13.78,0.209,0.418,0.459
13.785,0.26,0.455,0.344
13.79,0.299,0.492,0.385
13.795,0.359,0.505,0.461
13.8,0.408,0.545,0.356
13.805,0.484,0.434,0.408
13.81,0.509,0.541,0.354
13.815,0.527,0.579,0.439
13.82,0.577,0.561,0.354
13.825,0.674,0.564,0.269
13.83,0.558,0.623,0.36
13.835,0.718,0.603,0.325
13.84,0.692,0.487,0.317
13.845,0.69,0.582,0.353
13.85,0.717,0.611,0.227
13.855,0.801,0.655,0.316
13.86,0.724,0.65,0.252
13.865,0.835,0.585,0.293
13.87,0.915,0.536,0.305
13.875,0.784,0.555,0.19
13.88,0.777,0.478,0.201
13.885,0.76,0.473,0.154
13.89,0.768,0.396,0.104
13.895,0.746,0.401,0.079
13.9,0.718,0.432,0.033
13.905,0.836,0.349,0.076
13.91,0.725,0.367,0.043
13.915,0.696,0.243,-0.011
13.92,0.74,0.28,-0.047
13.925,0.649,0.294,-0.121
13.93,0.659,0.121,-0.037
13.935,0.599,0.283,-0.047
13.94,0.619,0.098,-0.128
13.945,0.425,0.083,-0.172
13.95,0.49,0.051,-0.169
13.955,0.434,0.006,-0.229
13.96,0.367,-0.124,-0.279
13.965,0.399,-0.09,-0.284
13.97,0.268,-0.17,-0.272
13.975,0.149,-0.181,-0.325
13.98,0.131,-0.268,-0.314
13.985,0.058,-0.179,-0.35
13.99,-0.051,-0.222,-0.326
13.995,-0.032,-0.307,-0.43
14.0,-0.119,-0.371,-0.324
14.005,-0.17,-0.335,-0.308
14.01,-0.163,-0.471,-0.439
14.015,-0.165,-0.41,-0.313
14.02,-0.224,-0.45,-0.367
14.025,-0.264,-0.496,-0.37
14.03,-0.453,-0.497,-0.447
14.035,-0.405,-0.491,-0.356
14.04,-0.479,-0.574,-0.353
14.045,-0.486,-0.593,-0.328
14.05,-0.532,-0.648,-0.362
14.055,-0.607,-0.585,-0.395
14.06,-0.588,-0.62,-0.382
14.065,-0.727,-0.681,-0.45
14.07,-0.727,-0.533,-0.443
14.075,-0.762,-0.627,-0.337
14.08,-0.699,-0.542,-0.306
14.085,-0.778,-0.622,-0.267
14.09,-0.766,-0.69,-0.18
14.095,-0.812,-0.644,-0.324
14.1,-0.816,-0.45,-0.208
14.105,-0.807,-0.477,-0.144
14.11,-0.772,-0.541,-0.219
14.115,-0.808,-0.488,-0.184
14.12,-0.819,-0.466,-0.177
14.125,-0.791,-0.413,-0.058
14.13,-0.682,-0.383,-0.09
14.135,-0.732,-0.409,-0.026
14.14,-0.815,-0.24,-0.069
14.145,-0.652,-0.292,-0.016
14.15,-0.651,-0.294,0.082
14.155,-0.559,-0.218,0.049
14.16,-0.618,-0.226,0.082
14.165,-0.585,-0.081,0.215
14.17,-0.521,-0.05,0.171
14.175,-0.405,-0.046,0.093
14.18,-0.427,-0.049,0.185
14.185,-0.389,-0.021,0.295
14.19,-0.428,0.052,0.215
14.195,-0.245,0.033,0.243
14.2,-0.267,0.083,0.17
14.205,-0.179,0.186,0.328
14.21,0.054,0.24,0.334
14.215,-0.139,0.312,0.368
14.22,0.031,0.215,0.261
14.225,-0.001,0.256,0.331
14.23,0.163,0.301,0.358
14.235,0.189,0.547,0.331
14.24,0.256,0.487,0.296
14.245,0.232,0.435,0.391
14.25,0.321,0.381,0.406
14.255,0.282,0.495,0.485
14.26,0.439,0.547,0.462
14.265,0.527,0.557,0.346
14.27,0.584,0.568,0.331
14.275,0.517,0.547,0.363
14.28,0.547,0.717,0.367
14.285,0.635,0.539,0.352
14.29,0.63,0.733,0.332
14.295,0.66,0.69,0.439
14.3,0.658,0.579,0.412
14.305,0.693,0.632,0.374
14.31,0.791,0.591,0.37
14.315,0.684,0.549,0.34
14.32,0.804,0.573,0.243
14.325,0.861,0.552,0.275
14.33,0.816,0.58,0.175
14.335,0.767,0.579,0.275
14.34,0.797,0.633,0.106
14.345,0.755,0.419,0.048
14.35,0.782,0.459,0.143
14.355,0.715,0.403,0.108
14.36,0.823,0.367,0.071
14.365,0.765,0.282,0.078
14.37,0.768,0.248,0.004
14.375,0.546,0.311,-0.046
14.38,0.716,0.255,-0.038
14.385,0.64,0.209,-0.139
14.39,0.662,0.229,-0.116
14.395,0.555,0.096,-0.088
14.4,0.487,-0.043,-0.153
14.405,0.397,0.053,-0.203
14.41,0.497,0.002,-0.236
14.415,0.349,0.002,-0.265
14.42,0.356,-0.135,-0.282
14.425,0.265,-0.155,-0.238
14.43,0.173,-0.115,-0.325
14.435,0.175,-0.209,-0.292
14.44,0.183,-0.2,-0.317
14.445,0.067,-0.243,-0.44
14.45,0.006,-0.308,-0.327
14.455,0.038,-0.356,-0.352
14.46,-0.11,-0.355,-0.38
14.465,-0.222,-0.422,-0.386
14.47,-0.115,-0.408,-0.403
14.475,-0.305,-0.407,-0.556
14.48,-0.249,-0.474,-0.285
14.485,-0.389,-0.54,-0.38
14.49,-0.375,-0.483,-0.369
14.495,-0.504,-0.499,-0.373
14.5,-0.539,-0.64,-0.436
14.505,-0.619,-0.602,-0.344
14.51,-0.567,-0.547,-0.44
14.515,-0.54,-0.598,-0.397
14.52,-0.697,-0.668,-0.358
14.525,-0.64,-0.598,-0.401
14.53,-0.702,-0.544,-0.341
14.535,-0.787,-0.571,-0.357
14.54,-0.743,-0.64,-0.29
14.545,-0.757,-0.681,-0.4
14.55,-0.824,-0.539,-0.265
14.555,-0.768,-0.503,-0.134
14.56,-0.865,-0.495,-0.19
14.565,-0.801,-0.494,-0.22
14.57,-0.806,-0.523,-0.12
14.575,-0.737,-0.506,-0.167
14.58,-0.793,-0.409,-0.123
14.585,-0.766,-0.325,0.002
14.59,-0.752,-0.356,-0.162
14.595,-0.7,-0.393,-0.014
14.6,-0.736,-0.429,-0.01
14.605,-0.636,-0.273,0.052
14.61,-0.694,-0.3,0.045
14.615,-0.649,-0.154,0.006
14.62,-0.675,-0.161,0.068
14.625,-0.42,-0.195,0.191
14.63,-0.481,-0.027,0.17
14.635,-0.49,-0.13,0.246
14.64,-0.442,0.027,0.171
14.645,-0.33,0.109,0.237
14.65,-0.401,0.137,0.204
14.655,-0.243,0.126,0.252
14.66,-0.149,0.19,0.193
14.665,-0.117,0.18,0.351
14.67,-0.237,0.279,0.34
14.675,0.018,0.292,0.252
14.68,-0.035,0.258,0.395
14.685,0.072,0.371,0.329
14.69,0.107,0.41,0.337
14.695,0.08,0.452,0.442
14.7,0.184,0.43,0.306
14.705,0.296,0.479,0.402
14.71,0.41,0.483,0.469
14.715,0.292,0.462,0.464
14.72,0.391,0.543,0.478
14.725,0.545,0.502,0.37
14.73,0.552,0.502,0.355
14.735,0.593,0.697,0.395
14.74,0.552,0.572,0.36
14.745,0.569,0.583,0.423
14.75,0.65,0.594,0.385
14.755,0.681,0.542,0.372
14.76,0.704,0.595,0.317
14.765,0.778,0.622,0.41
14.77,0.737,0.579,0.246
14.775,0.803,0.553,0.286
14.78,0.785,0.533,0.256
14.785,0.877,0.547,0.252
14.79,0.836,0.57,0.217
14.795,0.892,0.39,0.189
14.8,0.831,0.576,0.162
14.805,0.771,0.539,0.18
14.81,0.794,0.564,0.114
14.815,0.749,0.418,0.095
14.82,0.723,0.341,0.09
14.825,0.733,0.429,0.061
14.83,0.647,0.358,0.024
14.835,0.668,0.249,-0.004
14.84,0.656,0.263,-0.06
14.845,0.635,0.145,-0.03
14.85,0.516,0.132,-0.101
14.855,0.54,0.036,-0.144
14.86,0.527,0.143,-0.107
14.865,0.391,0.023,-0.23
14.87,0.433,0.037,-0.21
14.875,0.394,-0.047,-0.171
14.88,0.41,-0.098,-0.261
14.885,0.358,-0.153,-0.292
14.89,0.088,-0.087,-0.33
14.895,0.195,-0.203,-0.265
14.9,0.085,-0.305,-0.322
14.905,-0.02,-0.293,-0.388
14.91,0.0,-0.325,-0.408
14.915,-0.124,-0.374,-0.369
14.92,-0.11,-0.375,-0.351
14.925,-0.15,-0.359,-0.464
14.93,-0.162,-0.439,-0.365
14.935,-0.323,-0.454,-0.366
14.94,-0.379,-0.453,-0.423
14.945,-0.345,-0.552,-0.41
14.95,-0.482,-0.449,-0.372
14.955,-0.542,-0.596,-0.423
14.96,-0.486,-0.572,-0.385
14.965,-0.529,-0.517,-0.26
14.97,-0.612,-0.59,-0.337
14.975,-0.527,-0.583,-0.436
14.98,-0.645,-0.655,-0.369
14.985,-0.784,-0.564,-0.405
14.99,-0.703,-0.596,-0.293
14.995,-0.814,-0.479,-0.304
15.0,-0.752,-0.613,-0.272
15.005,-0.864,-0.55,-0.302
15.01,-0.786,-0.522,-0.278
15.015,-0.76,-0.568,-0.237
15.02,-0.903,-0.561,-0.178
15.025,-0.799,-0.608,-0.247
15.03,-0.904,-0.469,-0.135
15.035,-0.721,-0.435,-0.105
15.04,-0.778,-0.373,-0.134
15.045,-0.688,-0.431,-0.084
15.05,-0.768,-0.36,-0.021
15.055,-0.718,-0.352,0.034
15.06,-0.723,-0.35,-0.102
15.065,-0.65,-0.237,0.051
15.07,-0.63,-0.108,0.061
15.075,-0.628,-0.076,-0.017
15.08,-0.481,-0.107,0.028
15.085,-0.489,-0.122,0.182
15.09,-0.461,-0.018,0.156
15.095,-0.434,-0.165,0.198
15.1,-0.463,0.092,0.186
15.105,-0.428,0.062,0.246
15.11,-0.359,0.18,0.168
15.115,-0.278,0.004,0.299
15.12,-0.126,0.094,0.296
15.125,-0.201,0.211,0.222
15.13,-0.054,0.155,0.376
15.135,-0.013,0.311,0.361
15.14,0.018,0.366,0.31
15.145,0.081,0.34,0.451
15.15,0.141,0.539,0.384
15.155,0.179,0.367,0.506
15.16,0.244,0.439,0.467
15.165,0.314,0.53,0.438
15.17,0.335,0.436,0.538
15.175,0.399,0.548,0.388
15.18,0.445,0.487,0.392
15.185,0.396,0.451,0.478
15.19,0.522,0.58,0.339
15.195,0.583,0.582,0.369
15.2,0.572,0.54,0.395
15.205,0.684,0.537,0.373
15.21,0.638,0.627,0.383
15.215,0.722,0.615,0.456
15.22,0.752,0.542,0.321
15.225,0.741,0.576,0.263
15.23,0.774,0.459,0.268
15.235,0.785,0.542,0.27
15.24,0.768,0.528,0.203
15.245,0.752,0.548,0.222
15.25,0.798,0.496,0.2
15.255,0.755,0.412,0.304
15.26,0.778,0.516,0.213
15.265,0.741,0.438,0.123
15.27,0.749,0.418,0.07
15.275,0.782,0.481,0.075
15.28,0.739,0.394,-0.032
15.285,0.774,0.409,0.058
15.29,0.646,0.29,-0.044
15.295,0.668,0.264,0.008
15.3,0.683,0.281,-0.133
15.305,0.62,0.222,-0.067
15.31,0.493,0.159,-0.104
15.315,0.553,0.148,-0.134
15.32,0.404,0.044,-0.13
15.325,0.541,-0.006,-0.205
15.33,0.312,-0.058,-0.137
15.335,0.31,-0.046,-0.301
15.34,0.297,-0.058,-0.265
15.345,0.222,-0.153,-0.408
15.35,0.159,-0.198,-0.234
15.355,0.149,-0.158,-0.343
15.36,0.015,-0.31,-0.26
15.365,0.027,-0.247,-0.32
15.37,0.029,-0.442,-0.315
15.375,-0.091,-0.418,-0.446
15.38,-0.164,-0.453,-0.306
15.385,-0.202,-0.419,-0.441
15.39,-0.206,-0.441,-0.309
15.395,-0.359,-0.395,-0.315
15.4,-0.314,-0.473,-0.38
15.405,-0.358,-0.409,-0.452
15.41,-0.489,-0.506,-0.447
15.415,-0.462,-0.545,-0.362
15.42,-0.603,-0.489,-0.387
15.425,-0.545,-0.534,-0.351
15.43,-0.662,-0.501,-0.312
15.435,-0.54,-0.581,-0.398
15.44,-0.678,-0.51,-0.439
15.445,-0.682,-0.545,-0.327
15.45,-0.733,-0.532,-0.362
15.455,-0.725,-0.524,-0.363
15.46,-0.726,-0.577,-0.318
15.465,-0.77,-0.631,-0.271
15.47,-0.804,-0.555,-0.28
15.475,-0.784,-0.648,-0.263
15.48,-0.805,-0.526,-0.244
15.485,-0.734,-0.441,-0.153
15.49,-0.847,-0.464,-0.169
15.495,-0.81,-0.364,-0.113
15.5,-0.77,-0.387,-0.088
15.505,-0.736,-0.345,-0.11
15.51,-0.755,-0.383,0.004
15.515,-0.649,-0.314,-0.061
15.52,-0.749,-0.334,0.005
15.525,-0.693,-0.197,0.025
15.53,-0.632,-0.192,0.014
15.535,-0.644,-0.154,0.084
15.54,-0.543,-0.1,0.058
15.545,-0.491,-0.127,0.112
15.55,-0.494,-0.051,0.215
15.555,-0.384,0.039,0.145
15.56,-0.361,0.107,0.179
15.565,-0.282,0.017,0.238
15.57,-0.275,0.134,0.243
15.575,-0.236,0.138,0.317
15.58,-0.209,0.147,0.304
15.585,-0.102,0.321,0.307
15.59,-0.032,0.266,0.298
15.595,0.092,0.256,0.388
15.6,0.036,0.368,0.374
15.605,0.127,0.472,0.359
15.61,0.31,0.418,0.36
15.615,0.235,0.46,0.337
15.62,0.304,0.48,0.332
15.625,0.263,0.534,0.47
15.63,0.416,0.51,0.341
15.635,0.329,0.489,0.362
15.64,0.436,0.517,0.426
15.645,0.475,0.639,0.353
15.65,0.569,0.558,0.422
15.655,0.504,0.559,0.419
15.66,0.645,0.641,0.373
15.665,0.653,0.591,0.384
15.67,0.685,0.663,0.369
15.675,0.634,0.567,0.384
15.68,0.667,0.659,0.324
15.685,0.777,0.587,0.242
15.69,0.761,0.53,0.206
15.695,0.791,0.466,0.253
15.7,0.811,0.498,0.281
15.705,0.72,0.544,0.137
15.71,0.777,0.527,0.226
15.715,0.821,0.487,0.3
15.72,0.854,0.523,0.165
15.725,0.796,0.511,0.078
15.73,0.728,0.449,0.071
15.735,0.844,0.285,0.192
15.74,0.744,0.313,0.079
15.745,0.681,0.32,0.041
15.75,0.639,0.183,-0.018
15.755,0.617,0.123,0.061
15.76,0.62,0.222,-0.06
15.765,0.598,0.149,-0.08
15.77,0.516,0.134,-0.083
15.775,0.516,0.199,-0.05
15.78,0.523,0.09,-0.225
15.785,0.441,0.021,-0.138
15.79,0.422,-0.051,-0.14
15.795,0.305,-0.041,-0.239
15.8,0.305,-0.009,-0.302
15.805,0.215,-0.139,-0.274
15.81,0.147,-0.233,-0.216
15.815,0.042,-0.238,-0.366
15.82,0.035,-0.239,-0.289
15.825,0.005,-0.209,-0.376
15.83,-0.045,-0.444,-0.327
15.835,-0.155,-0.45,-0.327
15.84,-0.21,-0.367,-0.381
15.845,-0.199,-0.373,-0.444
15.85,-0.231,-0.471,-0.311
15.855,-0.353,-0.53,-0.381
15.86,-0.386,-0.472,-0.308
15.865,-0.517,-0.573,-0.422
15.87,-0.447,-0.584,-0.471
15.875,-0.572,-0.612,-0.41
15.88,-0.559,-0.472,-0.358
15.885,-0.622,-0.567,-0.475
15.89,-0.682,-0.524,-0.415
15.895,-0.725,-0.637,-0.332
15.9,-0.631,-0.53,-0.404
15.905,-0.649,-0.649,-0.299
15.91,-0.693,-0.579,-0.31
15.915,-0.795,-0.575,-0.189
15.92,-0.759,-0.578,-0.219
15.925,-0.759,-0.586,-0.289
15.93,-0.863,-0.614,-0.146
15.935,-0.899,-0.612,-0.253
15.94,-0.791,-0.474,-0.311
15.945,-0.749,-0.457,-0.045
15.95,-0.903,-0.454,-0.153
15.955,-0.809,-0.466,-0.111
15.96,-0.71,-0.404,-0.028
15.965,-0.708,-0.379,-0.101
15.97,-0.811,-0.382,0.001
15.975,-0.761,-0.34,0.038
15.98,-0.582,-0.277,0.019
15.985,-0.595,-0.268,0.036
15.99,-0.478,-0.178,0.081
15.995,-0.636,-0.225,0.156
16.0,-0.544,-0.108,0.161
16.005,-0.569,-0.221,0.172
16.01,-0.459,-0.089,0.156
16.015,-0.351,0.018,0.241
16.02,-0.329,-0.103,0.363
16.025,-0.238,0.101,0.196
16.03,-0.268,0.204,0.379
16.035,-0.21,0.152,0.26
16.04,-0.198,0.129,0.205
16.045,-0.133,0.151,0.372
16.05,-0.1,0.317,0.334
16.055,0.048,0.339,0.387
16.06,0.026,0.332,0.334
16.065,0.159,0.258,0.332
16.07,0.216,0.356,0.42
16.075,0.284,0.435,0.452
16.08,0.266,0.449,0.443
16.085,0.387,0.491,0.442
16.09,0.406,0.485,0.381
16.095,0.418,0.56,0.33
16.1,0.435,0.523,0.386
16.105,0.487,0.401,0.449
16.11,0.483,0.544,0.427
16.115,0.509,0.647,0.432
16.12,0.691,0.589,0.345
16.125,0.643,0.678,0.36
16.13,0.595,0.627,0.264
16.135,0.645,0.628,0.34
16.14,0.7,0.608,0.308
16.145,0.768,0.665,0.264
16.15,0.738,0.55,0.223
16.155,0.762,0.55,0.28
16.16,0.755,0.544,0.237
16.165,0.78,0.463,0.145
16.17,0.785,0.501,0.222
16.175,0.698,0.515,0.219
16.18,0.787,0.408,0.097
16.185,0.804,0.353,0.099
16.19,0.738,0.4,0.097
16.195,0.644,0.315,0.068
16.2,0.756,0.385,0.199
16.205,0.732,0.328,0.01
16.21,0.585,0.326,0.024
16.215,0.632,0.279,-0.03
16.22,0.604,0.263,-0.024
16.225,0.556,0.218,-0.158
16.23,0.489,0.066,-0.248
16.235,0.537,0.127,-0.113
16.24,0.437,0.097,-0.173
16.245,0.358,0.037,-0.197
16.25,0.357,-0.013,-0.284
16.255,0.215,-0.098,-0.17
16.26,0.197,-0.108,-0.313
16.265,0.245,-0.153,-0.271
16.27,0.142,-0.27,-0.285
16.275,0.079,-0.227,-0.38
16.28,0.013,-0.277,-0.372
16.285,-0.063,-0.311,-0.367
16.29,-0.063,-0.321,-0.379
16.295,-0.002,-0.314,-0.377
16.3,-0.156,-0.393,-0.404
16.305,-0.228,-0.442,-0.342
16.31,-0.222,-0.492,-0.37
16.315,-0.241,-0.518,-0.345
16.32,-0.405,-0.562,-0.389
16.325,-0.466,-0.433,-0.454
16.33,-0.454,-0.541,-0.384
16.335,-0.511,-0.55,-0.415
16.34,-0.601,-0.591,-0.353
16.345,-0.607,-0.575,-0.325
16.35,-0.637,-0.673,-0.343
16.355,-0.695,-0.664,-0.357
16.36,-0.577,-0.61,-0.371
16.365,-0.771,-0.556,-0.328
16.37,-0.751,-0.573,-0.381
16.375,-0.752,-0.557,-0.352
16.38,-0.845,-0.614,-0.297
16.385,-0.788,-0.5,-0.199
16.39,-0.873,-0.533,-0.237
16.395,-0.904,-0.541,-0.213
16.4,-0.798,-0.49,-0.071
16.405,-0.874,-0.474,-0.037
16.41,-0.828,-0.495,-0.148
16.415,-0.836,-0.416,-0.109
16.42,-0.803,-0.408,-0.094
16.425,-0.776,-0.431,-0.073
16.43,-0.775,-0.392,-0.088
16.435,-0.663,-0.351,-0.056
16.44,-0.684,-0.233,0.052
16.445,-0.71,-0.219,0.042
16.45,-0.584,-0.198,0.018
16.455,-0.629,-0.175,0.096
16.46,-0.562,-0.04,0.117
16.465,-0.534,-0.099,0.122
16.47,-0.445,-0.001,0.129
16.475,-0.381,0.064,0.217
16.48,-0.361,0.063,0.223
16.485,-0.313,0.126,0.218
16.49,-0.215,0.088,0.31
16.495,-0.258,0.121,0.248
16.5,-0.139,0.219,0.332
16.505,-0.104,0.261,0.35
16.51,-0.066,0.302,0.366
16.515,-0.038,0.304,0.331
16.52,0.07,0.403,0.374
16.525,0.035,0.365,0.414
16.53,0.157,0.482,0.45
16.535,0.2,0.614,0.373
16.54,0.326,0.479,0.421
16.545,0.286,0.451,0.488
16.55,0.329,0.575,0.438
16.555,0.449,0.637,0.456
16.56,0.393,0.552,0.429
16.565,0.578,0.667,0.37
16.57,0.566,0.536,0.36
16.575,0.61,0.57,0.402
16.58,0.631,0.609,0.427
16.585,0.616,0.579,0.286
16.59,0.671,0.568,0.347
16.595,0.693,0.544,0.24
16.6,0.669,0.627,0.328
16.605,0.741,0.56,0.36
16.61,0.828,0.626,0.341
16.615,0.812,0.585,0.257
16.62,0.731,0.539,0.321
16.625,0.805,0.496,0.291
16.63,0.875,0.534,0.155
16.635,0.834,0.463,0.203
16.64,0.779,0.52,0.094
16.645,0.808,0.365,0.14
16.65,0.749,0.412,0.085
16.655,0.755,0.44,0.08
16.66,0.721,0.301,-0.068
16.665,0.633,0.304,-0.072
16.67,0.763,0.206,-0.003
16.675,0.575,0.277,-0.118
16.68,0.497,0.07,-0.064
16.685,0.51,0.254,-0.105
16.69,0.571,0.15,-0.157
16.695,0.516,-0.027,-0.269
16.7,0.388,0.052,-0.178
16.705,0.43,0.054,-0.144
16.71,0.361,-0.032,-0.257
16.715,0.226,-0.153,-0.378
16.72,0.234,-0.079,-0.272
16.725,0.209,-0.204,-0.254
16.73,0.097,-0.223,-0.321
16.735,0.177,-0.24,-0.267
16.74,0.01,-0.312,-0.317
16.745,0.04,-0.247,-0.333
16.75,-0.115,-0.389,-0.425
16.755,-0.167,-0.386,-0.357
16.76,-0.189,-0.379,-0.424
16.765,-0.212,-0.445,-0.453
16.77,-0.368,-0.516,-0.375
16.775,-0.291,-0.526,-0.373
16.78,-0.277,-0.539,-0.492
16.785,-0.416,-0.553,-0.46
16.79,-0.393,-0.555,-0.422
16.795,-0.473,-0.519,-0.426
16.8,-0.559,-0.633,-0.363
16.805,-0.685,-0.468,-0.384
16.81,-0.604,-0.583,-0.342
16.815,-0.701,-0.56,-0.348
16.82,-0.658,-0.466,-0.295
16.825,-0.722,-0.657,-0.34
16.83,-0.791,-0.62,-0.262
16.835,-0.783,-0.56,-0.361
16.84,-0.799,-0.557,-0.234
16.845,-0.786,-0.606,-0.148
16.85,-0.757,-0.543,-0.209
16.855,-0.768,-0.556,-0.175
16.86,-0.79,-0.557,-0.166
16.865,-0.814,-0.423,-0.095
16.87,-0.763,-0.43,-0.096
16.875,-0.818,-0.431,-0.095
16.88,-0.754,-0.44,0.027
16.885,-0.697,-0.389,-0.089
16.89,-0.686,-0.342,0.018
16.895,-0.725,-0.283,-0.074
16.9,-0.668,-0.331,0.041
16.905,-0.721,-0.145,0.061
16.91,-0.679,-0.184,0.004
16.915,-0.605,-0.221,0.149
16.92,-0.505,-0.126,0.19
16.925,-0.577,-0.155,0.102
16.93,-0.481,0.037,0.209
16.935,-0.386,0.009,0.186
16.94,-0.291,0.058,0.306
16.945,-0.298,0.01,0.221
16.95,-0.219,0.138,0.323
16.955,-0.123,0.1,0.318
16.96,-0.169,0.192,0.336
16.965,-0.073,0.302,0.458
16.97,-0.038,0.251,0.363
16.975,0.115,0.253,0.373
16.98,0.103,0.406,0.29
16.985,0.114,0.427,0.382
16.99,0.106,0.45,0.397
16.995,0.324,0.45,0.438
17.0,0.35,0.509,0.382
17.005,0.322,0.475,0.433
17.01,0.349,0.561,0.363
17.015,0.468,0.583,0.309
17.02,0.432,0.504,0.355
17.025,0.629,0.573,0.297
17.03,0.54,0.668,0.368
17.035,0.588,0.533,0.403
17.04,0.636,0.613,0.36
17.045,0.69,0.626,0.362
17.05,0.724,0.602,0.346
17.055,0.674,0.629,0.339
17.06,0.731,0.568,0.347
17.065,0.782,0.603,0.387
17.07,0.758,0.581,0.23
17.075,0.78,0.568,0.249
17.08,0.72,0.534,0.266
17.085,0.785,0.479,0.188
17.09,0.8,0.492,0.164
17.095,0.696,0.429,0.183
17.1,0.819,0.4,0.182
17.105,0.712,0.38,0.031
17.11,0.761,0.374,0.06
17.115,0.715,0.336,0.054
17.12,0.688,0.36,0.083
17.125,0.682,0.31,-0.01
17.13,0.638,0.334,0.054
17.135,0.666,0.238,-0.001
17.14,0.627,0.182,-0.045
17.145,0.513,0.204,-0.151
17.15,0.553,0.134,-0.091
17.155,0.412,0.061,-0.124
17.16,0.52,-0.081,-0.204
17.165,0.436,-0.075,-0.135
17.17,0.391,-0.072,-0.276
17.175,0.283,0.026,-0.26
17.18,0.265,-0.189,-0.229
17.185,0.237,-0.214,-0.248
17.19,0.101,-0.189,-0.4
17.195,0.112,-0.307,-0.352
17.2,0.099,-0.36,-0.328
17.205,0.038,-0.319,-0.405
17.21,-0.032,-0.328,-0.445
17.215,-0.16,-0.396,-0.416
17.22,-0.221,-0.425,-0.438
17.225,-0.161,-0.448,-0.377
17.23,-0.369,-0.425,-0.421
17.235,-0.327,-0.446,-0.428
17.24,-0.345,-0.488,-0.394
17.245,-0.45,-0.623,-0.474
17.25,-0.524,-0.517,-0.387
17.255,-0.584,-0.51,-0.356
17.26,-0.564,-0.603,-0.432
17.265,-0.495,-0.554,-0.347
17.27,-0.65,-0.535,-0.326
17.275,-0.648,-0.588,-0.369
17.28,-0.77,-0.607,-0.365
17.285,-0.781,-0.558,-0.369
17.29,-0.755,-0.527,-0.268
17.295,-0.734,-0.689,-0.276
17.3,-0.792,-0.615,-0.205
17.305,-0.699,-0.653,-0.284
17.31,-0.699,-0.523,-0.241
17.315,-0.757,-0.527,-0.082
17.32,-0.766,-0.495,-0.178
17.325,-0.774,-0.591,-0.176
17.33,-0.732,-0.455,-0.084
17.335,-0.782,-0.436,-0.055
17.34,-0.78,-0.361,-0.09
17.345,-0.765,-0.365,-0.146
17.35,-0.573,-0.36,-0.055
17.355,-0.685,-0.212,-0.062
17.36,-0.609,-0.326,0.001
17.365,-0.632,-0.219,0.038
17.37,-0.62,-0.176,0.002
17.375,-0.569,-0.062,0.115
17.38,-0.466,-0.077,0.167
17.385,-0.502,-0.06,0.206
17.39,-0.45,0.0,0.173
17.395,-0.379,0.077,0.228
17.4,-0.315,0.03,0.174
17.405,-0.286,0.085,0.251
17.41,-0.201,0.075,0.196
17.415,-0.18,0.189,0.28
17.42,-0.134,0.183,0.244
17.425,-0.034,0.33,0.297
17.43,-0.016,0.207,0.357
17.435,0.013,0.331,0.407
17.44,0.12,0.355,0.288
17.445,0.121,0.354,0.349
17.45,0.143,0.408,0.351
17.455,0.311,0.523,0.347
17.46,0.286,0.487,0.419
17.465,0.267,0.517,0.485
17.47,0.308,0.573,0.391
17.475,0.403,0.555,0.418
17.48,0.592,0.468,0.395
17.485,0.557,0.586,0.408
17.49,0.563,0.573,0.414
17.495,0.619,0.641,0.35
17.5,0.709,0.625,0.33
17.505,0.61,0.612,0.374
17.51,0.647,0.568,0.407
17.515,0.718,0.54,0.32
17.52,0.818,0.584,0.29
17.525,0.731,0.591,0.3
17.53,0.815,0.521,0.273
17.535,0.812,0.566,0.295
17.54,0.829,0.519,0.152
17.545,0.762,0.559,0.188
17.55,0.811,0.462,0.16
17.555,0.812,0.428,0.122
17.56,0.848,0.469,0.198
17.565,0.789,0.428,0.045
17.57,0.853,0.443,0.082
17.575,0.729,0.344,0.024
17.58,0.674,0.313,0.03
17.585,0.738,0.286,-0.007
17.59,0.611,0.2,-0.015
17.595,0.586,0.111,-0.042
17.6,0.64,0.265,-0.151
17.605,0.575,0.221,-0.073
17.61,0.642,0.065,-0.238
17.615,0.434,0.075,-0.217
17.62,0.35,-0.043,-0.229
17.625,0.347,0.055,-0.127
17.63,0.299,-0.122,-0.278
17.635,0.228,-0.034,-0.198
17.64,0.191,-0.205,-0.293
17.645,0.157,-0.228,-0.266
17.65,0.003,-0.21,-0.301
17.655,0.083,-0.196,-0.418
17.66,-0.014,-0.271,-0.368
17.665,-0.039,-0.272,-0.377
17.67,-0.121,-0.368,-0.344
17.675,-0.22,-0.256,-0.351
17.68,-0.161,-0.418,-0.408
17.685,-0.184,-0.445,-0.323
17.69,-0.309,-0.437,-0.356
17.695,-0.411,-0.466,-0.487
17.7,-0.403,-0.587,-0.429
17.705,-0.548,-0.598,-0.339
17.71,-0.593,-0.509,-0.435
17.715,-0.509,-0.519,-0.447
17.72,-0.547,-0.598,-0.356
17.725,-0.604,-0.599,-0.403
17.73,-0.622,-0.591,-0.439
17.735,-0.676,-0.605,-0.433
17.74,-0.71,-0.518,-0.379
17.745,-0.771,-0.59,-0.31
17.75,-0.629,-0.515,-0.255
17.755,-0.676,-0.578,-0.28
17.76,-0.717,-0.629,-0.188
17.765,-0.714,-0.455,-0.302
17.77,-0.811,-0.579,-0.256
17.775,-0.758,-0.365,-0.212
17.78,-0.85,-0.662,-0.13
17.785,-0.754,-0.383,-0.089
17.79,-0.718,-0.601,-0.166
17.795,-0.786,-0.398,-0.158
17.8,-0.842,-0.404,-0.088
17.805,-0.711,-0.277,-0.128
17.81,-0.659,-0.387,0.019
17.815,-0.692,-0.356,0.003
17.82,-0.615,-0.357,-0.012
17.825,-0.557,-0.235,0.042
17.83,-0.561,-0.186,0.073
17.835,-0.568,-0.161,0.093
17.84,-0.534,-0.112,0.184
17.845,-0.495,-0.12,0.119
17.85,-0.397,-0.05,0.19
17.855,-0.332,-0.018,0.23
17.86,-0.321,0.08,0.248
17.865,-0.244,0.084,0.37
17.87,-0.142,0.203,0.344
17.875,-0.113,0.213,0.244
17.88,-0.057,0.278,0.314
17.885,-0.012,0.275,0.41
17.89,-0.02,0.24,0.377
17.895,0.036,0.252,0.44
17.9,0.095,0.337,0.318
17.905,0.146,0.375,0.368
17.91,0.202,0.434,0.437
17.915,0.229,0.494,0.345
17.92,0.286,0.421,0.449
17.925,0.317,0.525,0.421
17.93,0.388,0.558,0.33
17.935,0.5,0.565,0.398
17.94,0.486,0.56,0.379
17.945,0.41,0.58,0.375
17.95,0.539,0.581,0.391
17.955,0.49,0.66,0.491
17.96,0.682,0.564,0.386
17.965,0.822,0.601,0.343
17.97,0.653,0.516,0.227
17.975,0.714,0.561,0.358
17.98,0.732,0.566,0.364
17.985,0.823,0.521,0.31
17.99,0.9,0.508,0.2
17.995,0.754,0.541,0.334
18.0,0.698,0.565,0.13
18.005,0.708,0.454,0.11
18.01,0.851,0.455,0.169
18.015,0.826,0.463,0.212
18.02,0.701,0.414,0.117
18.025,0.755,0.428,0.112
18.03,0.717,0.315,0.042
18.035,0.698,0.402,0.09
18.04,0.69,0.337,0.1
18.045,0.686,0.261,-0.004
18.05,0.682,0.254,-0.125
18.055,0.633,0.161,-0.103
18.06,0.61,0.181,-0.184
18.065,0.508,0.105,-0.122
18.07,0.395,0.114,-0.158
18.075,0.398,0.058,-0.127
18.08,0.505,0.09,-0.21
18.085,0.308,0.034,-0.141
18.09,0.29,-0.059,-0.22
18.095,0.214,-0.06,-0.261
18.1,0.116,-0.234,-0.348
18.105,0.122,-0.262,-0.315
18.11,0.127,-0.31,-0.398
18.115,0.023,-0.257,-0.366
18.12,-0.001,-0.327,-0.307
18.125,-0.11,-0.308,-0.343
18.13,-0.096,-0.321,-0.433
18.135,-0.119,-0.295,-0.3
18.14,-0.25,-0.485,-0.327
18.145,-0.28,-0.444,-0.336
18.15,-0.316,-0.366,-0.408
18.155,-0.448,-0.571,-0.364
18.16,-0.493,-0.505,-0.449
18.165,-0.513,-0.451,-0.395
18.17,-0.537,-0.518,-0.454
18.175,-0.556,-0.528,-0.405
18.18,-0.637,-0.648,-0.413
18.185,-0.67,-0.571,-0.43
18.19,-0.684,-0.599,-0.336
18.195,-0.708,-0.627,-0.362
18.2,-0.567,-0.617,-0.377
18.205,-0.655,-0.559,-0.349
18.21,-0.751,-0.641,-0.398
18.215,-0.723,-0.584,-0.197
18.22,-0.776,-0.604,-0.25
18.225,-0.774,-0.516,-0.242
18.23,-0.772,-0.459,-0.253
18.235,-0.755,-0.426,-0.21
18.24,-0.775,-0.466,-0.081
18.245,-0.742,-0.396,-0.16
18.25,-0.799,-0.414,-0.152
18.255,-0.757,-0.446,-0.081
18.26,-0.69,-0.35,-0.018
18.265,-0.72,-0.301,-0.018
18.27,-0.823,-0.336,-0.102
18.275,-0.703,-0.29,-0.087
18.28,-0.635,-0.213,0.078
18.285,-0.558,-0.215,0.086
18.29,-0.579,-0.185,0.028
18.295,-0.485,-0.153,0.12
18.3,-0.456,-0.045,0.083
18.305,-0.446,0.007,0.166
18.31,-0.346,-0.045,0.213
18.315,-0.369,-0.087,0.283
18.32,-0.34,0.122,0.245
18.325,-0.341,0.155,0.256
18.33,-0.188,0.168,0.273
18.335,-0.106,0.149,0.215
18.34,-0.146,0.23,0.386
18.345,-0.061,0.302,0.327
18.35,0.013,0.268,0.306
18.355,0.074,0.263,0.38
18.36,0.096,0.392,0.304
18.365,0.098,0.407,0.384
18.37,0.176,0.375,0.361
18.375,0.27,0.486,0.439
18.38,0.304,0.588,0.464
18.385,0.431,0.579,0.44
18.39,0.365,0.558,0.334
18.395,0.497,0.571,0.391
18.4,0.545,0.655,0.35
18.405,0.574,0.626,0.379
18.41,0.618,0.625,0.368
18.415,0.606,0.59,0.312
18.42,0.688,0.547,0.38
18.425,0.64,0.605,0.262
18.43,0.678,0.584,0.312
18.435,0.726,0.512,0.356
18.44,0.773,0.601,0.238
18.445,0.762,0.517,0.222
18.45,0.862,0.559,0.204
18.455,0.812,0.578,0.302
18.46,0.72,0.537,0.193
18.465,0.791,0.512,0.137
18.47,0.812,0.508,0.222
18.475,0.779,0.463,0.166
18.48,0.816,0.445,0.114
18.485,0.876,0.427,0.225
18.49,0.775,0.432,0.059
18.495,0.717,0.427,0.039
18.5,0.594,0.351,0.083
18.505,0.659,0.289,-0.145
18.51,0.624,0.281,-0.008
18.515,0.638,0.223,-0.104
18.52,0.64,0.097,-0.083
18.525,0.581,0.194,-0.2
18.53,0.427,0.038,-0.223
18.535,0.429,-0.027,-0.063
18.54,0.427,0.029,-0.325
18.545,0.309,0.028,-0.255
18.55,0.298,-0.038,-0.205
18.555,0.195,-0.16,-0.238
18.56,0.142,-0.244,-0.298
18.565,0.142,-0.188,-0.373
18.57,0.146,-0.247,-0.299
18.575,-0.033,-0.242,-0.337
18.58,-0.025,-0.353,-0.278
18.585,-0.104,-0.284,-0.342
18.59,-0.129,-0.377,-0.371
18.595,-0.195,-0.293,-0.403
18.6,-0.239,-0.557,-0.42
18.605,-0.309,-0.59,-0.393
18.61,-0.23,-0.52,-0.405
18.615,-0.407,-0.572,-0.342
18.62,-0.514,-0.492,-0.323
18.625,-0.487,-0.594,-0.421
18.63,-0.492,-0.63,-0.461
18.635,-0.566,-0.595,-0.367
18.64,-0.656,-0.531,-0.369
18.645,-0.663,-0.528,-0.368
18.65,-0.609,-0.63,-0.317
18.655,-0.709,-0.57,-0.293
18.66,-0.834,-0.605,-0.365
18.665,-0.676,-0.553,-0.396
18.67,-0.723,-0.577,-0.267
18.675,-0.778,-0.554,-0.318
18.68,-0.746,-0.563,-0.303
18.685,-0.797,-0.604,-0.281
18.69,-0.78,-0.584,-0.294
18.695,-0.868,-0.508,-0.156
18.7,-0.805,-0.559,-0.16
18.705,-0.737,-0.573,-0.188
18.71,-0.743,-0.49,-0.118
18.715,-0.752,-0.4,-0.105
18.72,-0.733,-0.421,-0.078
18.725,-0.651,-0.396,-0.051
18.73,-0.745,-0.392,-0.032
18.735,-0.644,-0.318,0.081
18.74,-0.67,-0.243,-0.004
18.745,-0.666,-0.153,0.114
18.75,-0.464,-0.128,0.102
18.755,-0.529,-0.177,0.031
18.76,-0.573,0.016,0.131
18.765,-0.358,0.038,0.121
18.77,-0.36,-0.007,0.249
18.775,-0.296,-0.079,0.196
18.78,-0.415,0.127,0.2
18.785,-0.17,0.194,0.34
18.79,-0.248,0.243,0.32
18.795,-0.16,0.265,0.275
18.8,-0.126,0.253,0.281
18.805,-0.067,0.327,0.279
18.81,-0.058,0.295,0.363
18.815,0.11,0.307,0.357
18.82,0.052,0.412,0.354
18.825,0.099,0.433,0.324
18.83,0.251,0.518,0.363
18.835,0.265,0.391,0.368
18.84,0.391,0.466,0.351
18.845,0.345,0.515,0.336
18.85,0.405,0.479,0.396
18.855,0.519,0.539,0.377
18.86,0.422,0.52,0.46
18.865,0.528,0.605,0.364
18.87,0.606,0.513,0.441
18.875,0.645,0.594,0.372
18.88,0.647,0.612,0.493
18.885,0.648,0.556,0.305
18.89,0.697,0.632,0.302
18.895,0.809,0.563,0.279
18.9,0.741,0.531,0.239
18.905,0.69,0.545,0.317
18.91,0.769,0.63,0.263
18.915,0.794,0.606,0.203
18.92,0.764,0.523,0.188
18.925,0.87,0.479,0.22
18.93,0.823,0.462,0.112
18.935,0.872,0.423,0.178
18.94,0.747,0.433,0.172
18.945,0.771,0.453,0.067
18.95,0.746,0.428,0.039
18.955,0.706,0.314,0.093
18.96,0.747,0.303,0.04
18.965,0.746,0.21,-0.012
18.97,0.637,0.224,-0.076
18.975,0.688,0.238,-0.109
18.98,0.534,0.025,-0.087
18.985,0.522,0.2,-0.112
18.99,0.391,0.088,-0.107
18.995,0.431,0.052,-0.097
19.0,0.338,-0.071,-0.255
19.005,0.342,-0.078,-0.254
19.01,0.287,-0.101,-0.312
19.015,0.228,-0.174,-0.221
19.02,0.138,-0.262,-0.384
19.025,0.19,-0.305,-0.364
19.03,0.034,-0.237,-0.302
19.035,0.073,-0.283,-0.354
19.04,-0.044,-0.28,-0.404
19.045,-0.124,-0.359,-0.372
19.05,-0.135,-0.362,-0.331
19.055,-0.187,-0.405,-0.35
19.06,-0.281,-0.407,-0.365
19.065,-0.311,-0.511,-0.352
19.07,-0.358,-0.498,-0.438
19.075,-0.309,-0.546,-0.404
19.08,-0.465,-0.54,-0.411
19.085,-0.5,-0.511,-0.341
19.09,-0.555,-0.587,-0.382
19.095,-0.453,-0.57,-0.43
19.1,-0.599,-0.525,-0.305
19.105,-0.639,-0.645,-0.329
19.11,-0.688,-0.652,-0.386
19.115,-0.684,-0.638,-0.282
19.12,-0.757,-0.589,-0.363
19.125,-0.73,-0.532,-0.341
19.13,-0.679,-0.62,-0.281
19.135,-0.763,-0.635,-0.289
19.14,-0.779,-0.575,-0.25
19.145,-0.752,-0.516,-0.277
19.15,-0.838,-0.508,-0.193
19.155,-0.763,-0.551,-0.164
19.16,-0.824,-0.42,-0.186
19.165,-0.8,-0.477,-0.079
19.17,-0.815,-0.423,-0.118
19.175,-0.645,-0.393,-0.059
19.18,-0.775,-0.362,-0.103
19.185,-0.665,-0.306,0.041
19.19,-0.693,-0.348,-0.053
19.195,-0.627,-0.225,0.038
19.2,-0.658,-0.245,0.094
19.205,-0.612,-0.155,0.101
19.21,-0.538,-0.088,0.137
19.215,-0.58,-0.101,0.142
19.22,-0.482,-0.048,0.131
19.225,-0.453,-0.033,0.147
19.23,-0.331,0.049,0.218
19.235,-0.264,0.008,0.26
19.24,-0.3,0.13,0.288
19.245,-0.274,0.06,0.282
19.25,-0.146,0.185,0.419
19.255,-0.111,0.11,0.31
19.26,0.031,0.307,0.314
19.265,-0.028,0.278,0.49
19.27,-0.055,0.311,0.33
19.275,-0.006,0.379,0.302
19.28,0.079,0.451,0.449
19.285,0.111,0.461,0.42
19.29,0.232,0.372,0.401
19.295,0.346,0.488,0.48
19.3,0.392,0.466,0.376
19.305,0.329,0.51,0.433
19.31,0.427,0.534,0.373
19.315,0.535,0.569,0.387
19.32,0.532,0.576,0.295
19.325,0.531,0.626,0.444
19.33,0.526,0.702,0.449
19.335,0.549,0.6,0.393
19.34,0.626,0.6,0.264
19.345,0.685,0.57,0.4
19.35,0.73,0.583,0.314
19.355,0.747,0.59,0.246
19.36,0.813,0.461,0.294
19.365,0.73,0.554,0.25
19.37,0.838,0.516,0.27
19.375,0.735,0.553,0.305
19.38,0.694,0.527,0.155
19.385,0.694,0.488,0.126
19.39,0.758,0.446,0.11
19.395,0.761,0.407,0.139
19.4,0.718,0.366,0.047
19.405,0.775,0.389,0.056
19.41,0.725,0.342,0.098
19.415,0.773,0.319,-0.052
19.42,0.708,0.336,0.058
19.425,0.673,0.336,-0.033
19.43,0.664,0.266,0.016
19.435,0.685,0.162,-0.099
19.44,0.603,-0.002,-0.135
19.445,0.443,0.056,-0.179
19.45,0.495,0.01,-0.175
19.455,0.438,0.14,-0.183
19.46,0.427,-0.071,-0.141
19.465,0.284,-0.033,-0.285
19.47,0.295,-0.055,-0.214
19.475,0.205,-0.16,-0.247
19.48,0.128,-0.223,-0.247
19.485,0.158,-0.211,-0.314
19.49,0.093,-0.274,-0.317
19.495,-0.074,-0.279,-0.326
19.5,-0.125,-0.318,-0.327
19.505,-0.12,-0.267,-0.273
19.51,-0.22,-0.386,-0.352
19.515,-0.103,-0.447,-0.314
19.52,-0.292,-0.429,-0.326
19.525,-0.326,-0.415,-0.394
19.53,-0.369,-0.475,-0.382
19.535,-0.439,-0.505,-0.37
19.54,-0.431,-0.509,-0.342
19.545,-0.391,-0.559,-0.312
19.55,-0.541,-0.53,-0.437
19.555,-0.585,-0.556,-0.288
19.56,-0.614,-0.59,-0.386
19.565,-0.655,-0.561,-0.371
19.57,-0.712,-0.613,-0.39
19.575,-0.767,-0.68,-0.308
19.58,-0.746,-0.611,-0.286
19.585,-0.733,-0.609,-0.27
19.59,-0.716,-0.589,-0.257
19.595,-0.663,-0.542,-0.285
19.6,-0.809,-0.635,-0.266
19.605,-0.793,-0.489,-0.227
19.61,-0.886,-0.469,-0.2
19.615,-0.797,-0.587,-0.209
19.62,-0.837,-0.438,-0.198
19.625,-0.901,-0.352,-0.134
19.63,-0.674,-0.456,-0.025
19.635,-0.809,-0.423,-0.014
19.64,-0.728,-0.407,-0.032
19.645,-0.77,-0.349,0.048
19.65,-0.62,-0.278,0.095
19.655,-0.619,-0.254,0.066
19.66,-0.589,-0.293,0.084
19.665,-0.632,-0.249,0.2
19.67,-0.504,-0.177,0.102
19.675,-0.499,-0.058,0.179
19.68,-0.433,-0.002,0.152
19.685,-0.46,-0.03,0.154
19.69,-0.402,0.086,0.25
19.695,-0.281,0.054,0.203
19.7,-0.258,0.134,0.262
19.705,-0.221,0.18,0.23
19.71,-0.087,0.166,0.434
19.715,-0.054,0.245,0.258
19.72,-0.067,0.255,0.378
19.725,0.005,0.25,0.307
19.73,0.056,0.292,0.259
19.735,0.143,0.38,0.391
19.74,0.122,0.427,0.42
19.745,0.233,0.391,0.395
19.75,0.223,0.373,0.397
19.755,0.38,0.535,0.366
19.76,0.359,0.586,0.455
19.765,0.398,0.573,0.313
19.77,0.475,0.601,0.415
19.775,0.612,0.57,0.358
19.78,0.562,0.562,0.335
19.785,0.685,0.602,0.256
19.79,0.596,0.574,0.5
19.795,0.554,0.514,0.323
19.8,0.669,0.6,0.338
19.805,0.718,0.617,0.422
19.81,0.775,0.56,0.271
19.815,0.763,0.559,0.365
19.82,0.827,0.616,0.341
19.825,0.754,0.581,0.237
19.83,0.819,0.545,0.223
19.835,0.756,0.628,0.191
19.84,0.808,0.466,0.235
19.845,0.787,0.43,0.136
19.85,0.732,0.511,0.185
19.855,0.826,0.439,0.153
19.86,0.709,0.435,0.079
19.865,0.806,0.425,0.075
19.87,0.875,0.233,0.029
19.875,0.748,0.339,0.036
19.88,0.673,0.301,0.029
19.885,0.649,0.305,-0.04
19.89,0.651,0.206,-0.069
19.895,0.519,0.272,0.038
19.9,0.519,0.237,-0.113
19.905,0.554,0.03,-0.104
19.91,0.435,0.132,-0.183
19.915,0.375,-0.044,-0.136
19.92,0.34,-0.008,-0.253
19.925,0.318,-0.003,-0.228
19.93,0.232,-0.142,-0.218
19.935,0.231,-0.138,-0.277
19.94,0.176,-0.282,-0.312
19.945,0.174,-0.173,-0.27
19.95,0.021,-0.248,-0.29
19.955,0.087,-0.383,-0.41
19.96,-0.113,-0.252,-0.376
19.965,-0.096,-0.323,-0.401
19.97,-0.165,-0.381,-0.374
19.975,-0.22,-0.423,-0.36
19.98,-0.202,-0.387,-0.447
19.985,-0.299,-0.45,-0.443
19.99,-0.222,-0.451,-0.415
19.995,-0.405,-0.552,-0.411
20.0,-0.458,-0.556,-0.4
20.005,-0.463,-0.611,-0.461
20.01,-0.547,-0.636,-0.357
20.015,-0.559,-0.553,-0.395
20.02,-0.626,-0.609,-0.416
20.025,-0.585,-0.567,-0.384
20.03,-0.696,-0.576,-0.378
20.035,-0.713,-0.566,-0.248
20.04,-0.658,-0.581,-0.226
20.045,-0.704,-0.573,-0.332
20.05,-0.709,-0.522,-0.398
20.055,-0.727,-0.582,-0.293
20.06,-0.813,-0.518,-0.351
20.065,-0.708,-0.469,-0.263
20.07,-0.82,-0.629,-0.194
20.075,-0.811,-0.448,-0.12
20.08,-0.823,-0.398,-0.126
20.085,-0.81,-0.445,-0.043
20.09,-0.751,-0.423,-0.177
20.095,-0.732,-0.465,-0.036
20.1,-0.796,-0.346,0.078
20.105,-0.74,-0.264,0.01
20.11,-0.665,-0.277,0.052
20.115,-0.725,-0.321,0.04
20.12,-0.654,-0.166,0.043
20.125,-0.606,-0.122,0.092
20.13,-0.506,-0.215,0.113
20.135,-0.538,-0.08,0.174
20.14,-0.428,-0.042,0.172
20.145,-0.401,0.036,0.18
20.15,-0.432,0.06,0.142
20.155,-0.228,0.168,0.211
20.16,-0.269,0.083,0.27
20.165,-0.234,0.191,0.359
20.17,-0.051,0.23,0.275
20.175,-0.106,0.202,0.345
20.18,-0.039,0.291,0.277
20.185,0.08,0.291,0.247
20.19,0.117,0.338,0.412
20.195,0.139,0.421,0.388
20.2,0.16,0.377,0.425
20.205,0.202,0.438,0.381
20.21,0.252,0.458,0.448
20.215,0.297,0.449,0.436
20.22,0.363,0.468,0.378
20.225,0.344,0.514,0.429
20.23,0.456,0.598,0.413
20.235,0.483,0.482,0.339
20.24,0.575,0.605,0.362
20.245,0.511,0.519,0.377
20.25,0.684,0.537,0.426
20.255,0.658,0.608,0.289
20.26,0.629,0.519,0.292
20.265,0.657,0.697,0.315
20.27,0.762,0.604,0.28
20.275,0.766,0.668,0.277
20.28,0.802,0.538,0.304
20.285,0.748,0.561,0.274
20.29,0.744,0.588,0.249
20.295,0.757,0.631,0.23
20.3,0.752,0.488,0.166
20.305,0.837,0.539,0.211
20.31,0.794,0.461,0.191
20.315,0.7,0.406,0.087
20.32,0.8,0.389,0.047
20.325,0.766,0.366,0.081
20.33,0.764,0.241,0.005
20.335,0.742,0.404,0.055
20.34,0.678,0.194,-0.046
20.345,0.585,0.267,-0.024
20.35,0.543,0.307,-0.064
20.355,0.566,0.119,-0.147
20.36,0.514,0.014,-0.148
20.365,0.531,0.015,-0.064
20.37,0.443,-0.026,-0.09
20.375,0.361,0.057,-0.262
20.38,0.324,-0.021,-0.225
20.385,0.317,-0.042,-0.268
20.39,0.303,-0.141,-0.296
20.395,0.105,-0.147,-0.254
20.4,0.072,-0.259,-0.31
20.405,0.185,-0.24,-0.304
20.41,-0.001,-0.265,-0.447
20.415,0.053,-0.297,-0.331
20.42,-0.12,-0.354,-0.283
20.425,-0.203,-0.359,-0.366
20.43,-0.245,-0.45,-0.355
20.435,-0.308,-0.392,-0.367
20.44,-0.411,-0.478,-0.399
20.445,-0.36,-0.542,-0.313
20.45,-0.339,-0.419,-0.382
20.455,-0.36,-0.611,-0.35
20.46,-0.532,-0.467,-0.392
20.465,-0.587,-0.561,-0.34
20.47,-0.579,-0.6,-0.406
20.475,-0.532,-0.577,-0.359
20.48,-0.685,-0.566,-0.399
20.485,-0.659,-0.643,-0.255
20.49,-0.599,-0.576,-0.297
20.495,-0.68,-0.558,-0.4
20.5,-0.715,-0.604,-0.286
20.505,-0.661,-0.535,-0.29
20.51,-0.81,-0.595,-0.254
20.515,-0.888,-0.622,-0.255
20.52,-0.839,-0.553,-0.258
20.525,-0.878,-0.529,-0.128
20.53,-0.761,-0.499,-0.209
20.535,-0.883,-0.496,-0.204
20.54,-0.77,-0.437,-0.078
20.545,-0.705,-0.437,-0.121
20.55,-0.788,-0.484,0.02
20.555,-0.733,-0.369,-0.11
20.56,-0.77,-0.382,-0.129
20.565,-0.638,-0.371,0.098
20.57,-0.645,-0.235,0.044
20.575,-0.563,-0.127,0.045
20.58,-0.618,-0.145,0.131
20.585,-0.567,-0.128,0.086
20.59,-0.596,-0.128,0.05
20.595,-0.532,-0.043,0.122
20.6,-0.512,-0.128,0.206
20.605,-0.442,0.043,0.145
20.61,-0.394,-0.004,0.186
20.615,-0.234,0.108,0.233
20.62,-0.305,0.166,0.263
20.625,-0.168,0.149,0.201
20.63,-0.099,0.183,0.404
20.635,-0.081,0.355,0.278
20.64,-0.035,0.301,0.403
20.645,-0.045,0.224,0.346
20.65,0.082,0.362,0.412
20.655,0.058,0.413,0.42
20.66,0.19,0.433,0.423
20.665,0.152,0.469,0.513
20.67,0.243,0.473,0.372
20.675,0.357,0.466,0.387
20.68,0.354,0.548,0.364
20.685,0.423,0.501,0.357
20.69,0.487,0.544,0.387
20.695,0.524,0.552,0.39
20.7,0.537,0.516,0.368
20.705,0.681,0.604,0.432
20.71,0.596,0.666,0.36
20.715,0.676,0.58,0.333
20.72,0.768,0.576,0.348
20.725,0.77,0.588,0.323
20.73,0.731,0.602,0.328
20.735,0.75,0.53,0.389
20.74,0.738,0.542,0.29
20.745,0.739,0.637,0.234
20.75,0.845,0.558,0.238
20.755,0.81,0.571,0.227
20.76,0.755,0.613,0.208
20.765,0.763,0.443,0.214
20.77,0.786,0.441,0.145
20.775,0.79,0.324,0.114
20.78,0.697,0.372,0.154
20.785,0.688,0.328,0.074
20.79,0.786,0.32,0.038
20.795,0.774,0.296,0.12
20.8,0.694,0.26,0.041
20.805,0.588,0.294,-0.11
20.81,0.538,0.135,-0.057
20.815,0.489,0.169,-0.156
20.82,0.549,0.127,-0.153
20.825,0.445,0.13,-0.145
20.83,0.523,0.057,-0.293
20.835,0.441,0.016,-0.126
20.84,0.329,-0.126,-0.215
20.845,0.328,-0.107,-0.266
20.85,0.263,-0.122,-0.275
20.855,0.128,-0.252,-0.311
20.86,0.152,-0.31,-0.355
20.865,0.033,-0.297,-0.303
20.87,0.108,-0.232,-0.267
20.875,-0.043,-0.424,-0.353
20.88,-0.046,-0.359,-0.325
20.885,-0.083,-0.293,-0.372
20.89,-0.174,-0.321,-0.463
20.895,-0.249,-0.425,-0.527
20.9,-0.317,-0.537,-0.373
20.905,-0.351,-0.498,-0.29
20.91,-0.39,-0.424,-0.375
20.915,-0.429,-0.476,-0.483
20.92,-0.554,-0.517,-0.349
20.925,-0.459,-0.553,-0.413
20.93,-0.586,-0.63,-0.39
20.935,-0.594,-0.628,-0.348
20.94,-0.712,-0.605,-0.314
20.945,-0.585,-0.672,-0.404
20.95,-0.629,-0.625,-0.316
20.955,-0.786,-0.602,-0.349
20.96,-0.763,-0.633,-0.307
20.965,-0.754,-0.621,-0.287
20.97,-0.863,-0.654,-0.339
20.975,-0.852,-0.564,-0.241
20.98,-0.78,-0.707,-0.175
20.985,-0.832,-0.644,-0.228
20.99,-0.802,-0.517,-0.201
20.995,-0.703,-0.489,-0.113
21.0,-0.797,-0.474,-0.124
21.005,-0.77,-0.39,-0.048
21.01,-0.746,-0.407,-0.028
21.015,-0.76,-0.337,-0.072
21.02,-0.705,-0.292,0.028
21.025,-0.652,-0.302,0.026
21.03,-0.672,-0.239,0.005
21.035,-0.639,-0.309,0.119
21.04,-0.587,-0.211,0.092
21.045,-0.433,-0.124,0.103
21.05,-0.451,-0.048,0.138
21.055,-0.476,-0.048,0.187
21.06,-0.461,-0.058,0.147
21.065,-0.398,0.024,0.218
21.07,-0.343,0.063,0.291
21.075,-0.254,0.082,0.172
21.08,-0.266,0.176,0.329
21.085,-0.223,0.216,0.316
21.09,-0.102,0.198,0.379
21.095,-0.009,0.251,0.317
21.1,0.053,0.304,0.331
21.105,0.128,0.329,0.419
21.11,0.095,0.41,0.365
21.115,0.115,0.437,0.374
21.12,0.223,0.436,0.333
21.125,0.287,0.421,0.401
21.13,0.371,0.579,0.367
21.135,0.376,0.555,0.437
21.14,0.383,0.508,0.315
21.145,0.443,0.436,0.385
21.15,0.457,0.535,0.356
21.155,0.565,0.603,0.401
21.16,0.546,0.614,0.39
21.165,0.556,0.652,0.334
21.17,0.706,0.579,0.355
21.175,0.67,0.469,0.233
21.18,0.672,0.603,0.426
21.185,0.737,0.684,0.253
21.19,0.723,0.616,0.28
21.195,0.712,0.546,0.202
21.2,0.848,0.57,0.291
21.205,0.748,0.493,0.357
21.21,0.807,0.599,0.162
21.215,0.79,0.444,0.243
21.22,0.908,0.493,0.162
21.225,0.82,0.396,0.164
21.23,0.834,0.432,0.119
21.235,0.659,0.399,0.029
21.24,0.69,0.439,0.024
21.245,0.788,0.324,0.058
21.25,0.768,0.301,0.059
21.255,0.604,0.318,-0.008
21.26,0.627,0.281,-0.005
21.265,0.625,0.204,-0.084
21.27,0.55,0.215,-0.07
21.275,0.557,0.06,-0.018
21.28,0.501,0.206,-0.14
21.285,0.504,-0.043,-0.187
21.29,0.379,0.126,-0.247
21.295,0.351,-0.077,-0.176
21.3,0.334,-0.064,-0.357
21.305,0.293,-0.178,-0.305
21.31,0.216,-0.074,-0.213
21.315,0.127,-0.231,-0.371
21.32,0.158,-0.147,-0.314
21.325,0.014,-0.261,-0.315
21.33,-0.026,-0.309,-0.377
21.335,-0.083,-0.414,-0.341
21.34,-0.053,-0.482,-0.336
21.345,-0.219,-0.388,-0.418
21.35,-0.153,-0.407,-0.393
21.355,-0.286,-0.4,-0.341
21.36,-0.362,-0.512,-0.294
21.365,-0.393,-0.533,-0.281
21.37,-0.495,-0.587,-0.408
21.375,-0.455,-0.618,-0.353
21.38,-0.494,-0.566,-0.446
21.385,-0.634,-0.541,-0.414
21.39,-0.598,-0.528,-0.45
21.395,-0.633,-0.536,-0.36
21.4,-0.644,-0.598,-0.28
21.405,-0.61,-0.628,-0.42
21.41,-0.715,-0.662,-0.322
21.415,-0.708,-0.554,-0.318
21.42,-0.756,-0.598,-0.356
21.425,-0.758,-0.568,-0.22
21.43,-0.752,-0.623,-0.203
21.435,-0.702,-0.614,-0.226
21.44,-0.745,-0.484,-0.289
21.445,-0.772,-0.58,-0.11
21.45,-0.817,-0.462,-0.172
21.455,-0.786,-0.519,-0.145
21.46,-0.744,-0.384,-0.118
21.465,-0.722,-0.351,-0.115
21.47,-0.725,-0.361,-0.076
21.475,-0.766,-0.421,-0.042
21.48,-0.682,-0.299,0.095
21.485,-0.671,-0.341,0.025
21.49,-0.718,-0.281,0.141
21.495,-0.661,-0.244,0.1
21.5,-0.622,-0.149,0.043
21.505,-0.562,-0.085,0.055
21.51,-0.491,-0.122,0.246
21.515,-0.504,0.029,0.176
21.52,-0.352,-0.044,0.175
21.525,-0.4,0.014,0.299
21.53,-0.265,0.033,0.254
21.535,-0.224,0.125,0.214
21.54,-0.26,0.061,0.217
21.545,-0.119,0.206,0.263
21.55,-0.21,0.169,0.306
21.555,-0.129,0.269,0.267
21.56,-0.023,0.316,0.322
21.565,0.021,0.379,0.388
21.57,0.126,0.312,0.295
21.575,0.216,0.444,0.407
21.58,0.201,0.465,0.394
21.585,0.316,0.477,0.365
21.59,0.37,0.439,0.382
21.595,0.377,0.493,0.417
21.6,0.507,0.508,0.408
21.605,0.443,0.535,0.446
21.61,0.531,0.524,0.42
21.615,0.577,0.55,0.392
21.62,0.56,0.591,0.342
21.625,0.642,0.568,0.309
21.63,0.627,0.67,0.32
21.635,0.6,0.607,0.349
21.64,0.776,0.595,0.385
21.645,0.712,0.506,0.31
21.65,0.841,0.647,0.276
21.655,0.772,0.586,0.355
21.66,0.905,0.602,0.207
21.665,0.811,0.589,0.266
21.67,0.76,0.506,0.236
21.675,0.857,0.475,0.109
21.68,0.832,0.54,0.158
21.685,0.827,0.383,0.153
21.69,0.804,0.491,0.137
21.695,0.785,0.48,0.093
21.7,0.719,0.338,0.03
21.705,0.736,0.37,0.128
21.71,0.711,0.294,-0.045
21.715,0.671,0.269,0.124
21.72,0.664,0.284,-0.058
21.725,0.585,0.185,-0.081
21.73,0.584,0.185,-0.018
21.735,0.517,0.138,-0.173
21.74,0.463,0.173,-0.144
21.745,0.377,0.069,-0.028
21.75,0.437,0.038,-0.09
21.755,0.402,-0.037,-0.139
21.76,0.385,-0.068,-0.267
21.765,0.388,-0.124,-0.207
21.77,0.133,-0.087,-0.271
21.775,0.18,-0.158,-0.233
21.78,0.116,-0.225,-0.361
21.785,0.098,-0.239,-0.276
21.79,0.056,-0.324,-0.384
21.795,-0.079,-0.379,-0.273
21.8,-0.117,-0.378,-0.372
21.805,-0.059,-0.315,-0.357
21.81,-0.195,-0.479,-0.386
21.815,-0.308,-0.467,-0.333
21.82,-0.293,-0.465,-0.39
21.825,-0.407,-0.372,-0.412
21.83,-0.513,-0.54,-0.41
21.835,-0.491,-0.554,-0.376
21.84,-0.511,-0.571,-0.423
21.845,-0.543,-0.481,-0.35
21.85,-0.601,-0.577,-0.274
21.855,-0.663,-0.621,-0.396
21.86,-0.626,-0.554,-0.298
21.865,-0.693,-0.573,-0.277
21.87,-0.769,-0.626,-0.389
21.875,-0.662,-0.556,-0.344
21.88,-0.804,-0.616,-0.281
21.885,-0.67,-0.481,-0.296
21.89,-0.703,-0.561,-0.219
21.895,-0.784,-0.572,-0.238
21.9,-0.829,-0.55,-0.226
21.905,-0.843,-0.399,-0.286
21.91,-0.818,-0.424,-0.203
21.915,-0.821,-0.393,-0.191
21.92,-0.692,-0.397,-0.059
21.925,-0.808,-0.379,-0.083
21.93,-0.777,-0.46,0.022
21.935,-0.776,-0.405,-0.043
21.94,-0.624,-0.363,-0.043
21.945,-0.673,-0.282,0.164
21.95,-0.634,-0.304,0.026
21.955,-0.57,-0.213,0.023
21.96,-0.627,-0.265,0.146
21.965,-0.596,-0.137,0.132
21.97,-0.517,-0.095,0.177
21.975,-0.405,-0.068,0.119
21.98,-0.399,0.116,0.199
21.985,-0.325,-0.047,0.257
21.99,-0.273,0.029,0.279
21.995,-0.251,0.025,0.159
22.0,-0.179,0.139,0.303
22.005,-0.156,0.225,0.201
22.01,-0.081,0.256,0.368
22.015,-0.049,0.23,0.306
22.02,0.094,0.241,0.396
22.025,0.144,0.387,0.368
22.03,0.164,0.359,0.356
22.035,0.11,0.42,0.319
22.04,0.21,0.492,0.345
22.045,0.333,0.413,0.396
22.05,0.414,0.544,0.366
22.055,0.343,0.492,0.445
22.06,0.448,0.447,0.414
22.065,0.56,0.486,0.39
22.07,0.522,0.586,0.419
22.075,0.582,0.569,0.319
22.08,0.674,0.569,0.35
22.085,0.674,0.49,0.334
22.09,0.696,0.673,0.404
22.095,0.72,0.565,0.335
22.1,0.682,0.554,0.393
22.105,0.822,0.534,0.409
22.11,0.75,0.563,0.163
22.115,0.809,0.593,0.293
22.12,0.822,0.551,0.244
22.125,0.685,0.537,0.23
22.13,0.923,0.472,0.172
22.135,0.818,0.627,0.16
22.14,0.73,0.488,0.179
22.145,0.747,0.483,0.12
22.15,0.691,0.422,0.094
22.155,0.736,0.479,0.094
22.16,0.655,0.337,0.037
22.165,0.75,0.28,-0.058
22.17,0.63,0.353,0.021
22.175,0.688,0.265,-0.014
22.18,0.59,0.24,-0.103
22.185,0.666,0.162,-0.025
22.19,0.558,0.107,-0.137
22.195,0.457,0.139,-0.085
22.2,0.547,0.11,-0.147
22.205,0.473,0.012,-0.162
22.21,0.436,-0.038,-0.212
22.215,0.437,-0.059,-0.228
22.22,0.309,-0.074,-0.213
22.225,0.242,-0.043,-0.289
22.23,0.129,-0.188,-0.275
22.235,0.184,-0.221,-0.286
22.24,0.051,-0.31,-0.373
22.245,0.09,-0.237,-0.269
22.25,-0.059,-0.306,-0.421
22.255,-0.156,-0.259,-0.306
22.26,-0.133,-0.43,-0.388
22.265,-0.23,-0.409,-0.497
22.27,-0.216,-0.495,-0.321
22.275,-0.358,-0.526,-0.362
22.28,-0.279,-0.493,-0.426
22.285,-0.415,-0.498,-0.427
22.29,-0.44,-0.556,-0.476
22.295,-0.48,-0.534,-0.418
22.3,-0.526,-0.477,-0.387
22.305,-0.665,-0.624,-0.334
22.31,-0.597,-0.507,-0.331
22.315,-0.6,-0.596,-0.358
22.32,-0.659,-0.626,-0.291
22.325,-0.672,-0.609,-0.342
22.33,-0.714,-0.602,-0.365
22.335,-0.697,-0.515,-0.357
22.34,-0.817,-0.605,-0.36
22.345,-0.704,-0.578,-0.213
22.35,-0.727,-0.585,-0.314
22.355,-0.818,-0.532,-0.18
22.36,-0.878,-0.484,-0.134
22.365,-0.749,-0.55,-0.223
22.37,-0.776,-0.524,-0.188
22.375,-0.809,-0.421,-0.1
22.38,-0.686,-0.465,-0.162
22.385,-0.72,-0.44,-0.055
22.39,-0.745,-0.425,-0.06
22.395,-0.609,-0.304,-0.102
22.4,-0.759,-0.229,0.019
22.405,-0.614,-0.235,0.014
22.41,-0.582,-0.253,-0.027
22.415,-0.523,-0.225,0.085
22.42,-0.557,-0.172,0.124
22.425,-0.591,-0.1,0.077
22.43,-0.464,-0.078,0.056
22.435,-0.394,-0.008,0.181
22.44,-0.334,0.047,0.345
22.445,-0.261,-0.003,0.233
22.45,-0.326,0.092,0.229
22.455,-0.242,0.184,0.252
22.46,-0.169,0.221,0.352
22.465,-0.063,0.2,0.297
22.47,-0.051,0.217,0.344
22.475,-0.045,0.247,0.358
22.48,0.032,0.443,0.306
22.485,0.113,0.376,0.318
22.49,0.076,0.245,0.317
22.495,0.15,0.45,0.319
22.5,0.194,0.338,0.334
22.505,0.222,0.493,0.453
22.51,0.345,0.526,0.401
22.515,0.483,0.515,0.383
22.52,0.44,0.495,0.332
22.525,0.493,0.544,0.444
22.53,0.559,0.557,0.439
22.535,0.588,0.526,0.407
22.54,0.604,0.626,0.382
22.545,0.608,0.64,0.357
22.55,0.702,0.534,0.268
22.555,0.562,0.654,0.325
22.56,0.761,0.651,0.305
22.565,0.7,0.503,0.307
22.57,0.658,0.68,0.303
22.575,0.753,0.611,0.243
22.58,0.794,0.525,0.258
22.585,0.823,0.495,0.263
22.59,0.811,0.493,0.288
22.595,0.748,0.645,0.026
22.6,0.783,0.515,0.176
22.605,0.821,0.372,0.207
22.61,0.682,0.447,0.153
22.615,0.664,0.355,0.032
22.62,0.741,0.358,0.029
22.625,0.662,0.37,0.082
22.63,0.728,0.29,0.078
22.635,0.704,0.349,-0.083
22.64,0.71,0.23,-0.04
22.645,0.599,0.124,-0.058
22.65,0.561,0.276,-0.078
22.655,0.583,0.217,-0.133
22.66,0.517,-0.006,-0.089
22.665,0.434,0.02,-0.233
22.67,0.359,0.062,-0.124
22.675,0.419,-0.005,-0.241
22.68,0.282,-0.083,-0.377
22.685,0.237,-0.116,-0.275
22.69,0.188,-0.262,-0.389
22.695,0.077,-0.321,-0.354
22.7,-0.042,-0.262,-0.331
22.705,-0.062,-0.232,-0.31
22.71,-0.132,-0.337,-0.383
22.715,-0.105,-0.398,-0.384
22.72,-0.161,-0.401,-0.458
22.725,-0.266,-0.416,-0.422
22.73,-0.274,-0.411,-0.386
22.735,-0.247,-0.533,-0.336
22.74,-0.411,-0.488,-0.405
22.745,-0.344,-0.468,-0.316
22.75,-0.511,-0.591,-0.397
22.755,-0.497,-0.634,-0.314
22.76,-0.546,-0.536,-0.383
22.765,-0.451,-0.585,-0.397
22.77,-0.629,-0.636,-0.428
22.775,-0.581,-0.611,-0.384
22.78,-0.696,-0.515,-0.302
22.785,-0.707,-0.623,-0.288
22.79,-0.751,-0.595,-0.381
22.795,-0.683,-0.583,-0.293
22.8,-0.711,-0.659,-0.345
22.805,-0.715,-0.656,-0.273
22.81,-0.902,-0.585,-0.306
22.815,-0.803,-0.581,-0.268
22.82,-0.841,-0.563,-0.236
22.825,-0.823,-0.455,-0.213
22.83,-0.804,-0.503,-0.103
22.835,-0.919,-0.458,-0.177
22.84,-0.794,-0.425,-0.11
22.845,-0.744,-0.329,-0.148
22.85,-0.748,-0.371,-0.08
22.855,-0.717,-0.347,0.017
22.86,-0.709,-0.274,0.093
22.865,-0.607,-0.314,0.041
22.87,-0.595,-0.239,0.155
22.875,-0.612,-0.196,0.19
22.88,-0.533,-0.112,0.17
22.885,-0.571,-0.071,0.196
22.89,-0.533,-0.038,0.136
22.895,-0.467,0.019,0.207
22.9,-0.345,0.052,0.228
22.905,-0.293,0.053,0.292
22.91,-0.261,0.022,0.358
22.915,-0.214,0.125,0.333
22.92,-0.168,0.143,0.296
22.925,-0.126,0.308,0.405
22.93,0.002,0.282,0.306
22.935,0.042,0.251,0.314
22.94,-0.024,0.28,0.373
22.945,0.101,0.431,0.361
22.95,0.198,0.374,0.251
22.955,0.183,0.415,0.361
22.96,0.336,0.534,0.417
22.965,0.251,0.528,0.336
22.97,0.342,0.526,0.406
22.975,0.41,0.478,0.362
22.98,0.487,0.431,0.424
22.985,0.498,0.642,0.376
22.99,0.591,0.612,0.51
22.995,0.615,0.535,0.538
23.0,0.581,0.552,0.292
23.005,0.634,0.637,0.346
23.01,0.75,0.601,0.301
23.015,0.751,0.528,0.25
23.02,0.754,0.608,0.345
23.025,0.757,0.667,0.327
23.03,0.714,0.583,0.253
23.035,0.892,0.541,0.315
23.04,0.772,0.541,0.211
23.045,0.846,0.523,0.194
23.05,0.825,0.586,0.215
23.055,0.824,0.507,0.194
23.06,0.793,0.504,0.164
23.065,0.762,0.352,0.19
23.07,0.716,0.438,0.073
23.075,0.795,0.336,0.039
23.08,0.772,0.343,-0.006
23.085,0.758,0.393,0.049
23.09,0.661,0.254,-0.012
23.095,0.686,0.23,-0.002
23.1,0.659,0.193,0.059
23.105,0.532,0.16,-0.049
23.11,0.52,0.109,-0.168
23.115,0.564,0.183,-0.13
23.12,0.437,0.15,-0.211
23.125,0.41,0.027,-0.172
23.13,0.393,0.025,-0.157
23.135,0.316,0.014,-0.282
23.14,0.315,-0.062,-0.239
23.145,0.238,-0.118,-0.328
23.15,0.195,-0.174,-0.291
23.155,0.061,-0.231,-0.358
23.16,0.094,-0.245,-0.291
23.165,-0.03,-0.301,-0.404
23.17,-0.054,-0.354,-0.34
23.175,0.001,-0.399,-0.39
23.18,-0.143,-0.302,-0.356
23.185,-0.293,-0.43,-0.445
23.19,-0.298,-0.446,-0.453
23.195,-0.31,-0.478,-0.377
23.2,-0.331,-0.411,-0.475
23.205,-0.433,-0.532,-0.348
23.21,-0.455,-0.682,-0.355
23.215,-0.449,-0.52,-0.411
23.22,-0.516,-0.524,-0.375
23.225,-0.642,-0.594,-0.307
23.23,-0.602,-0.568,-0.382
23.235,-0.594,-0.608,-0.29
23.24,-0.714,-0.629,-0.349
23.245,-0.724,-0.54,-0.296
23.25,-0.667,-0.538,-0.264
23.255,-0.757,-0.661,-0.372
23.26,-0.743,-0.554,-0.284
23.265,-0.76,-0.551,-0.162
23.27,-0.857,-0.546,-0.268
23.275,-0.806,-0.501,-0.214
23.28,-0.701,-0.555,-0.326
23.285,-0.824,-0.549,-0.128
23.29,-0.742,-0.486,-0.162
23.295,-0.817,-0.481,-0.143
23.3,-0.762,-0.476,-0.137
23.305,-0.739,-0.366,-0.079
23.31,-0.721,-0.321,-0.037
23.315,-0.718,-0.216,-0.09
23.32,-0.622,-0.37,0.079
23.325,-0.661,-0.266,0.147
23.33,-0.537,-0.107,0.132
23.335,-0.586,-0.14,0.114
23.34,-0.533,-0.166,0.159
23.345,-0.46,-0.113,0.123
23.35,-0.41,-0.052,0.185
23.355,-0.388,-0.05,0.141
23.36,-0.334,-0.051,0.219
23.365,-0.35,0.052,0.22
23.37,-0.22,0.045,0.283
23.375,-0.189,0.108,0.362
23.38,-0.245,0.175,0.33
23.385,-0.036,0.228,0.268
23.39,-0.092,0.269,0.307
23.395,0.033,0.336,0.394
23.4,0.027,0.267,0.378
23.405,0.115,0.33,0.358
23.41,0.205,0.44,0.361
23.415,0.309,0.41,0.414
23.42,0.345,0.41,0.438
23.425,0.307,0.539,0.362
23.43,0.394,0.462,0.492
23.435,0.4,0.521,0.478
23.44,0.475,0.501,0.443
23.445,0.475,0.579,0.364
23.45,0.587,0.525,0.415
23.455,0.57,0.576,0.389
23.46,0.639,0.607,0.443
23.465,0.742,0.648,0.31
23.47,0.705,0.605,0.406
23.475,0.706,0.62,0.327
23.48,0.678,0.638,0.266
23.485,0.723,0.763,0.321
23.49,0.76,0.549,0.23
23.495,0.807,0.519,0.146
23.5,0.779,0.591,0.174
23.505,0.738,0.522,0.218
23.51,0.786,0.473,0.172
23.515,0.771,0.564,0.19
23.52,0.758,0.438,0.205
23.525,0.781,0.469,0.158
23.53,0.774,0.466,0.014
23.535,0.733,0.353,0.22
23.54,0.737,0.39,0.088
23.545,0.642,0.262,-0.062
23.55,0.616,0.282,-0.028
23.555,0.63,0.225,-0.049
23.56,0.517,0.306,-0.105
23.565,0.569,0.181,-0.019
23.57,0.563,0.125,-0.067
23.575,0.446,0.175,-0.198
23.58,0.414,0.052,-0.304
23.585,0.413,0.052,-0.226
23.59,0.353,-0.07,-0.193
23.595,0.338,-0.017,-0.187
23.6,0.302,-0.083,-0.261
23.605,0.206,-0.154,-0.249
23.61,0.158,-0.31,-0.277
23.615,0.113,-0.193,-0.313
23.62,0.036,-0.252,-0.32
23.625,-0.102,-0.288,-0.381
23.63,-0.144,-0.352,-0.337
23.635,-0.104,-0.346,-0.389
23.64,-0.168,-0.472,-0.404
23.645,-0.342,-0.381,-0.364
23.65,-0.33,-0.35,-0.453
23.655,-0.352,-0.486,-0.374
23.66,-0.324,-0.516,-0.412
23.665,-0.359,-0.543,-0.453
23.67,-0.489,-0.59,-0.391
23.675,-0.517,-0.543,-0.338
23.68,-0.5,-0.537,-0.358
23.685,-0.568,-0.599,-0.254
23.69,-0.676,-0.615,-0.322
23.695,-0.627,-0.534,-0.373
23.7,-0.657,-0.513,-0.347
23.705,-0.684,-0.505,-0.334
23.71,-0.741,-0.6,-0.349
23.715,-0.708,-0.599,-0.314
23.72,-0.773,-0.656,-0.282
23.725,-0.677,-0.484,-0.402
23.73,-0.837,-0.488,-0.308
23.735,-0.82,-0.529,-0.178
23.74,-0.739,-0.47,-0.143
23.745,-0.73,-0.478,-0.125
23.75,-0.876,-0.432,-0.156
23.755,-0.694,-0.373,-0.083
23.76,-0.866,-0.403,-0.113
23.765,-0.784,-0.405,-0.113
23.77,-0.738,-0.339,-0.119
23.775,-0.72,-0.231,-0.042
23.78,-0.647,-0.275,0.036
23.785,-0.525,-0.264,0.081
23.79,-0.613,-0.152,0.012
23.795,-0.602,-0.147,0.094
23.8,-0.55,-0.178,0.093
23.805,-0.415,-0.108,0.197
23.81,-0.491,-0.102,0.141
